acc_sum,block,block_c,condition,correct,correct_response,datetime,endtime,flanker,jitter,project,response,response_test_buffer_response,response_test_target_response,response_time,response_time_test_buffer_response,response_time_test_target_response,row_sel,session_number,start_end,starttime,subject_id,target,task,task_vers,time_test_buffer,time_test_buffer_response,time_test_constants,time_test_flanker,time_test_jitter,time_test_logger,time_test_target,time_test_target_response,time_test_variables,trial
1,prac,1,con,1,m,Thu Aug 29 2024 15:37:11 GMT-0500 (Central Daylight Time),218575.30000001192,zinc,1000,I,m,,,1199,,,15,1,3507.399999976158,215067.90000003576,7012,zinc,NF,C,,,,,,,,,,1
2,prac,1,inc,1,m,Thu Aug 29 2024 15:37:11 GMT-0500 (Central Daylight Time),222107.40000003576,raisin,1100,I,m,,,1114,,,12,1,3509.300000011921,218598.10000002384,7012,cobalt,NF,C,,,,,,,,,,2
3,prac,1,con,1,m,Thu Aug 29 2024 15:37:11 GMT-0500 (Central Daylight Time),225572.60000002384,silver,1000,I,m,,,1146,,,11,1,3444.300000011921,222128.30000001192,7012,silver,NF,C,,,,,,,,,,3
4,prac,1,con,1,m,Thu Aug 29 2024 15:37:11 GMT-0500 (Central Daylight Time),228788.30000001192,gold,800,I,m,,,1088,,,13,1,3194.199999988079,225594.10000002384,7012,gold,NF,C,,,,,,,,,,4
5,prac,1,con,1,z,Thu Aug 29 2024 15:37:11 GMT-0500 (Central Daylight Time),232203.90000003576,kiwi,1000,I,z,,,1097,,,7,1,3393.300000011921,228810.60000002384,7012,kiwi,NF,C,,,,,,,,,,5
6,prac,1,inc,1,m,Thu Aug 29 2024 15:37:11 GMT-0500 (Central Daylight Time),235619.40000003576,plum,1100,I,m,,,989,,,16,1,3394.900000035763,232224.5,7012,lead,NF,C,,,,,,,,,,6
7,prac,1,con,1,z,Thu Aug 29 2024 15:37:11 GMT-0500 (Central Daylight Time),238701.60000002384,lime,800,I,z,,,954,,,5,1,3061.699999988079,235639.90000003576,7012,lime,NF,C,,,,,,,,,,7
8,prac,1,inc,1,m,Thu Aug 29 2024 15:37:11 GMT-0500 (Central Daylight Time),241867.30000001192,cherry,900,I,m,,,948,,,10,1,3146.399999976158,238720.90000003576,7012,copper,NF,C,,,,,,,,,,8
9,prac,1,con,1,m,Thu Aug 29 2024 15:37:11 GMT-0500 (Central Daylight Time),245032.90000003576,bronze,800,I,m,,,1042,,,9,1,3145.300000011921,241887.60000002384,7012,bronze,NF,C,,,,,,,,,,9
10,prac,1,inc,1,z,Thu Aug 29 2024 15:37:11 GMT-0500 (Central Daylight Time),248481.80000001192,lead,1100,I,z,,,1016,,,8,1,3427.300000011921,245054.5,7012,plum,NF,C,,,,,,,,,,10
11,prac,1,inc,1,m,Thu Aug 29 2024 15:37:11 GMT-0500 (Central Daylight Time),251646.90000003576,pear,900,I,m,,,943,,,14,1,3142.600000023842,248504.30000001192,7012,iron,NF,C,,,,,,,,,,11
12,prac,1,con,1,z,Thu Aug 29 2024 15:37:11 GMT-0500 (Central Daylight Time),254863.0,banana,800,I,z,,,1111,,,1,1,3210.399999976158,251652.60000002384,7012,banana,NF,C,,,,,,,,,,12
13,prac,1,con,1,z,Thu Aug 29 2024 15:37:11 GMT-0500 (Central Daylight Time),258011.20000004768,orange,1000,I,z,,,822,,,3,1,3129.300000011921,254881.90000003576,7012,orange,NF,C,,,,,,,,,,13
14,prac,1,inc,1,z,Thu Aug 29 2024 15:37:11 GMT-0500 (Central Daylight Time),261143.70000004768,iron,900,I,z,,,918,,,6,1,3127.5,258016.20000004768,7012,pear,NF,C,,,,,,,,,,14
15,prac,1,inc,1,z,Thu Aug 29 2024 15:37:11 GMT-0500 (Central Daylight Time),264493.2000000477,cobalt,1100,I,z,,,938,,,4,1,3342.0,261151.20000004768,7012,raisin,NF,C,,,,,,,,,,15
16,prac,1,inc,1,z,Thu Aug 29 2024 15:37:11 GMT-0500 (Central Daylight Time),267642.10000002384,copper,900,I,z,,,916,,,2,1,3127.899999976158,264514.2000000477,7012,cherry,NF,C,,,,,,,,,,16
1,test,1,con,1,z,Thu Aug 29 2024 15:37:11 GMT-0500 (Central Daylight Time),288518.60000002384,raisin,1000,I,z,z,None,1054,855.0,199.0,27,1,2596.899999976158,285921.7000000477,7012,raisin,NF,C,283584,283584,281853,282867,281854,284450,283384,283384,284449,1
2,test,1,con,1,z,Thu Aug 29 2024 15:37:11 GMT-0500 (Central Daylight Time),290867.8000000119,raisin,800,I,z,z,None,990,791.0,199.0,25,1,2329.5,288538.3000000119,7012,raisin,NF,C,285999,286000,284469,285283,284470,286799,285799,285800,286799,2
3,test,1,con,1,z,Thu Aug 29 2024 15:37:11 GMT-0500 (Central Daylight Time),293566.7000000477,raisin,1100,I,z,z,None,1038,838.0,200.0,28,1,2678.2000000476837,290888.5,7012,raisin,NF,C,288649,288649,286819,287932,286820,289498,288448,288448,289498,3
4,test,1,con,1,z,Thu Aug 29 2024 15:37:11 GMT-0500 (Central Daylight Time),296332.7000000477,lime,1000,I,z,z,None,1214,1015.0,199.0,35,1,2745.600000023842,293587.10000002384,7012,lime,NF,C,291248,291248,289518,290531,289519,292264,291048,291048,292264,4
5,test,1,con,1,m,Thu Aug 29 2024 15:37:11 GMT-0500 (Central Daylight Time),298665.10000002384,silver,800,I,m,m,None,968,769.0,199.0,81,1,2316.100000023842,296349.0,7012,silver,NF,C,293814,293814,292280,293097,292281,294596,293614,293614,294596,5
6,test,1,inc,1,m,Thu Aug 29 2024 15:37:11 GMT-0500 (Central Daylight Time),301064.2000000477,lime,800,I,m,m,None,1044,845.0,199.0,125,1,2379.2000000476837,298685.0,7012,lead,NF,C,296145,296146,294616,295430,294617,296995,295946,295946,296995,6
7,test,1,con,1,z,Thu Aug 29 2024 15:37:11 GMT-0500 (Central Daylight Time),303363.5,cherry,800,I,z,z,None,932,733.0,199.0,9,1,2280.899999976158,301082.60000002384,7012,cherry,NF,C,298545,298546,297014,297829,297015,299295,298345,298346,299294,7
8,test,1,inc,1,m,Thu Aug 29 2024 15:37:11 GMT-0500 (Central Daylight Time),306045.90000003576,raisin,1100,I,m,m,None,1021,822.0,199.0,96,1,2663.900000035763,303382.0,7012,cobalt,NF,C,301145,301145,299313,300428,299314,301977,300945,300945,301977,8
9,test,1,inc,1,z,Thu Aug 29 2024 15:37:11 GMT-0500 (Central Daylight Time),308711.7000000477,lead,1100,I,z,z,None,1011,812.0,199.0,40,1,2646.900000035763,306064.8000000119,7012,lime,NF,C,303827,303827,301996,303111,301997,304643,303627,303627,304643,9
10,test,1,inc,1,m,Thu Aug 29 2024 15:37:11 GMT-0500 (Central Daylight Time),311177.8000000119,cherry,900,I,m,m,None,1001,802.0,199.0,78,1,2447.199999988079,308730.60000002384,7012,copper,NF,C,306293,306293,304662,305576,304663,307109,306093,306093,307109,10
11,test,1,con,1,m,Thu Aug 29 2024 15:37:11 GMT-0500 (Central Daylight Time),313742.8000000119,silver,900,I,m,m,None,1110,911.0,199.0,82,1,2545.0,311197.8000000119,7012,silver,NF,C,308759,308759,307129,308042,307130,309674,308559,308559,309674,11
12,test,1,inc,1,m,Thu Aug 29 2024 15:37:11 GMT-0500 (Central Daylight Time),316375.60000002384,plum,1100,I,m,m,None,994,795.0,199.0,120,1,2626.0,313749.60000002384,7012,zinc,NF,C,311508,311508,309681,310791,309681,312307,311308,311308,312307,12
13,test,1,inc,1,m,Thu Aug 29 2024 15:37:11 GMT-0500 (Central Daylight Time),318808.3000000119,lime,800,I,m,m,None,1077,878.0,199.0,117,1,2412.800000011921,316395.5,7012,zinc,NF,C,313857,313857,312327,313140,312328,314739,313657,313657,314739,13
14,test,1,inc,1,z,Thu Aug 29 2024 15:37:11 GMT-0500 (Central Daylight Time),321207.60000002384,gold,800,I,z,z,None,1044,845.0,199.0,37,1,2380.399999976158,318827.2000000477,7012,lime,NF,C,316290,316290,314758,315573,314759,317139,316090,316090,317139,14
15,test,1,con,1,m,Thu Aug 29 2024 15:37:11 GMT-0500 (Central Daylight Time),323756.7000000477,zinc,900,I,m,m,None,1089,890.0,199.0,114,1,2530.300000011921,321226.40000003576,7012,zinc,NF,C,318789,318789,317157,318072,317159,319688,318589,318589,319688,15
16,test,1,inc,1,z,Thu Aug 29 2024 15:37:11 GMT-0500 (Central Daylight Time),326356.0,cobalt,1100,I,z,z,None,932,717.0,215.0,16,1,2580.699999988079,323775.3000000119,7012,cherry,NF,C,321554,321554,319706,320821,319708,322287,321338,321338,322287,16
17,test,1,con,1,z,Thu Aug 29 2024 15:37:11 GMT-0500 (Central Daylight Time),328772.2000000477,kiwi,1000,I,z,z,None,865,666.0,199.0,51,1,2398.100000023842,326374.10000002384,7012,kiwi,NF,C,324037,324037,322305,323321,322306,324703,323837,323837,324703,17
18,test,1,inc,1,m,Thu Aug 29 2024 15:37:11 GMT-0500 (Central Daylight Time),331204.2000000477,pear,900,I,m,m,None,973,774.0,199.0,126,1,2413.800000011921,328790.40000003576,7012,lead,NF,C,326353,326353,324721,325636,324723,327135,326153,326153,327135,18
19,test,1,inc,1,m,Thu Aug 29 2024 15:37:11 GMT-0500 (Central Daylight Time),333503.5,lime,800,I,m,m,None,946,746.0,200.0,109,1,2279.699999988079,331223.8000000119,7012,iron,NF,C,328685,328685,327155,327969,327156,329435,328485,328485,329434,19
20,test,1,inc,1,z,Thu Aug 29 2024 15:37:11 GMT-0500 (Central Daylight Time),336086.0,lead,1100,I,z,z,None,930,730.0,200.0,64,1,2564.699999988079,333521.3000000119,7012,plum,NF,C,331285,331285,329452,330568,329453,332017,331084,331084,332017,20
21,test,1,inc,1,m,Thu Aug 29 2024 15:37:11 GMT-0500 (Central Daylight Time),338468.60000002384,cherry,900,I,m,m,None,923,724.0,199.0,86,1,2366.399999976158,336102.2000000477,7012,silver,NF,C,333667,333667,332033,332950,332034,334400,333467,333467,334400,21
22,test,1,inc,1,m,Thu Aug 29 2024 15:37:11 GMT-0500 (Central Daylight Time),341167.60000002384,banana,800,I,m,m,None,1345,1145.0,200.0,93,1,2673.199999988079,338494.40000003576,7012,cobalt,NF,C,335950,335950,334425,335233,334427,337099,335749,335749,337099,22
23,test,1,inc,1,z,Thu Aug 29 2024 15:37:11 GMT-0500 (Central Daylight Time),343716.90000003576,zinc,1000,I,z,z,None,989,790.0,199.0,55,1,2528.699999988079,341188.2000000477,7012,kiwi,NF,C,338849,338849,337119,338132,337120,339648,338649,338649,339648,23
24,test,1,con,1,z,Thu Aug 29 2024 15:37:11 GMT-0500 (Central Daylight Time),346149.3000000119,plum,900,I,z,z,None,972,773.0,199.0,58,1,2413.899999976158,343735.40000003576,7012,plum,NF,C,341298,341298,339666,340582,339667,342080,341098,341098,342080,24
25,test,1,con,1,z,Thu Aug 29 2024 15:37:11 GMT-0500 (Central Daylight Time),348665.2000000477,orange,1000,I,z,z,None,953,753.0,200.0,19,1,2497.0,346168.2000000477,7012,orange,NF,C,343830,343830,342099,343114,342100,344596,343630,343630,344596,25
26,test,1,con,1,z,Thu Aug 29 2024 15:37:11 GMT-0500 (Central Daylight Time),351097.60000002384,banana,1000,I,z,z,None,877,677.0,200.0,3,1,2414.0,348683.60000002384,7012,banana,NF,C,346346,346346,344615,345630,344616,347029,346146,346146,347029,26
27,test,1,con,1,m,Thu Aug 29 2024 15:37:11 GMT-0500 (Central Daylight Time),353746.8000000119,zinc,1100,I,m,m,None,983,784.0,199.0,116,1,2630.199999988079,351116.60000002384,7012,zinc,NF,C,348879,348879,347048,348162,347048,349678,348679,348679,349678,27
28,test,1,inc,1,m,Thu Aug 29 2024 15:37:11 GMT-0500 (Central Daylight Time),356495.90000003576,plum,1100,I,m,m,None,1094,895.0,199.0,112,1,2731.5,353764.40000003576,7012,iron,NF,C,351528,351528,349695,350811,349696,352427,351328,351328,352427,28
29,test,1,inc,1,m,Thu Aug 29 2024 15:37:11 GMT-0500 (Central Daylight Time),359161.7000000477,banana,800,I,m,m,None,1309,1110.0,199.0,69,1,2648.5,356513.2000000477,7012,bronze,NF,C,353977,353977,352444,353260,352445,355093,353777,353777,355093,29
30,test,1,con,1,m,Thu Aug 29 2024 15:37:11 GMT-0500 (Central Daylight Time),361660.60000002384,copper,800,I,m,m,None,1147,948.0,199.0,73,1,2481.800000011921,359178.8000000119,7012,copper,NF,C,356643,356643,355110,355926,355111,357592,356443,356443,357592,30
31,test,1,inc,1,z,Thu Aug 29 2024 15:37:11 GMT-0500 (Central Daylight Time),364176.60000002384,silver,1000,I,z,z,None,952,753.0,199.0,23,1,2499.0,361677.60000002384,7012,orange,NF,C,359342,359342,357609,358625,357610,360108,359142,359142,360108,31
32,test,1,inc,1,m,Thu Aug 29 2024 15:37:11 GMT-0500 (Central Daylight Time),366425.90000003576,banana,800,I,m,m,None,892,693.0,199.0,77,1,2231.400000035763,364194.5,7012,copper,NF,C,361658,361658,360126,360941,360127,362357,361458,361458,362357,32
33,test,1,con,1,m,Thu Aug 29 2024 15:37:11 GMT-0500 (Central Daylight Time),368808.40000003576,copper,900,I,m,m,None,928,728.0,200.0,74,1,2364.5,366443.90000003576,7012,copper,NF,C,364007,364007,362375,363291,362376,364740,363806,363806,364739,33
34,test,1,inc,1,m,Thu Aug 29 2024 15:37:11 GMT-0500 (Central Daylight Time),371141.10000002384,pear,900,I,m,m,None,872,673.0,199.0,118,1,2314.899999976158,368826.2000000477,7012,zinc,NF,C,366390,366390,364757,365673,364758,367072,366190,366190,367072,34
35,test,1,con,1,m,Thu Aug 29 2024 15:37:11 GMT-0500 (Central Daylight Time),373789.60000002384,lead,1100,I,m,m,None,994,795.0,199.0,124,1,2629.5,371160.10000002384,7012,lead,NF,C,368922,368923,367091,368205,367092,369721,368722,368722,369721,35
36,test,1,inc,1,z,Thu Aug 29 2024 15:37:11 GMT-0500 (Central Daylight Time),376222.60000002384,zinc,1000,I,z,z,None,895,696.0,199.0,63,1,2423.100000023842,373799.5,7012,plum,NF,C,371455,371455,369731,370738,369731,372154,371255,371255,372154,36
37,test,1,con,1,z,Thu Aug 29 2024 15:37:11 GMT-0500 (Central Daylight Time),378738.0,banana,1100,I,z,z,None,857,658.0,199.0,4,1,2496.899999976158,376241.10000002384,7012,banana,NF,C,374004,374004,372172,373286,372173,374669,373804,373804,374669,37
38,test,1,inc,1,z,Thu Aug 29 2024 15:37:11 GMT-0500 (Central Daylight Time),381304.40000003576,silver,1000,I,z,z,None,1027,828.0,199.0,7,1,2561.0,378743.40000003576,7012,banana,NF,C,376403,376403,374674,375686,374675,377235,376203,376203,377235,38
39,test,1,inc,1,m,Thu Aug 29 2024 15:37:11 GMT-0500 (Central Daylight Time),383803.60000002384,kiwi,1000,I,m,m,None,934,734.0,200.0,111,1,2481.800000011921,381321.8000000119,7012,iron,NF,C,378985,378985,377253,378269,377254,379735,378785,378785,379735,39
40,test,1,inc,1,m,Thu Aug 29 2024 15:37:11 GMT-0500 (Central Daylight Time),386102.7000000477,lime,800,I,m,m,None,937,738.0,199.0,101,1,2280.300000011921,383822.40000003576,7012,gold,NF,C,381285,381285,379753,380568,379754,382034,381085,381085,382034,40
41,test,1,con,1,z,Thu Aug 29 2024 15:37:11 GMT-0500 (Central Daylight Time),388468.7000000477,pear,900,I,z,z,None,914,715.0,199.0,42,1,2348.400000035763,386120.3000000119,7012,pear,NF,C,383684,383684,382051,382967,382052,384400,383484,383484,384400,41
42,test,1,inc,1,z,Thu Aug 29 2024 15:37:11 GMT-0500 (Central Daylight Time),390851.2000000477,copper,900,I,z,z,None,916,717.0,199.0,6,1,2364.900000035763,388486.3000000119,7012,banana,NF,C,386050,386050,384417,385333,384418,386782,385850,385850,386782,42
43,test,1,con,1,m,Thu Aug 29 2024 15:37:11 GMT-0500 (Central Daylight Time),393400.40000003576,bronze,1000,I,m,m,None,995,795.0,200.0,67,1,2532.199999988079,390868.2000000477,7012,bronze,NF,C,388532,388532,386799,387816,386800,389331,388332,388332,389331,43
44,test,1,con,1,m,Thu Aug 29 2024 15:37:11 GMT-0500 (Central Daylight Time),395732.60000002384,iron,900,I,m,m,None,881,682.0,199.0,106,1,2315.300000011921,393417.3000000119,7012,iron,NF,C,390981,390981,389348,390265,389349,391664,390781,390782,391664,44
45,test,1,inc,1,z,Thu Aug 29 2024 15:37:11 GMT-0500 (Central Daylight Time),398448.60000002384,copper,900,I,z,z,None,1252,1053.0,199.0,14,1,2698.100000023842,395750.5,7012,cherry,NF,C,393314,393314,391682,392597,391683,394380,393114,393114,394380,45
46,test,1,con,1,z,Thu Aug 29 2024 15:37:11 GMT-0500 (Central Daylight Time),400831.3000000119,cherry,900,I,z,z,None,937,738.0,199.0,10,1,2370.300000011921,398461.0,7012,cherry,NF,C,396013,396013,394392,395297,394393,396762,395813,395813,396762,46
47,test,1,con,1,m,Thu Aug 29 2024 15:37:11 GMT-0500 (Central Daylight Time),403147.10000002384,bronze,800,I,m,m,None,959,759.0,200.0,65,1,2296.600000023842,400850.5,7012,bronze,NF,C,398312,398312,396782,397596,396782,399078,398112,398112,399078,47
48,test,1,inc,1,z,Thu Aug 29 2024 15:37:11 GMT-0500 (Central Daylight Time),405513.0,iron,900,I,z,z,None,911,711.0,200.0,38,1,2347.699999988079,403165.3000000119,7012,lime,NF,C,400728,400728,399096,400012,399097,401444,400528,400528,401444,48
49,test,1,inc,1,m,Thu Aug 29 2024 15:37:11 GMT-0500 (Central Daylight Time),408562.0,raisin,1100,I,m,m,None,1392,1193.0,199.0,80,1,3032.0,405530.0,7012,copper,NF,C,403294,403294,401461,402577,401462,404493,403094,403094,404493,49
50,test,1,con,1,z,Thu Aug 29 2024 15:37:11 GMT-0500 (Central Daylight Time),411211.10000002384,pear,1000,I,z,z,None,1091,892.0,199.0,43,1,2630.800000011921,408580.3000000119,7012,pear,NF,C,406243,406243,404511,405526,404512,407142,406043,406043,407142,50
51,test,1,con,1,m,Thu Aug 29 2024 15:37:11 GMT-0500 (Central Daylight Time),413493.7000000477,cobalt,800,I,m,m,None,932,731.0,201.0,89,1,2264.900000035763,411228.8000000119,7012,cobalt,NF,C,408692,408692,407160,407975,407161,409425,408491,408491,409425,51
52,test,1,con,1,m,Thu Aug 29 2024 15:37:11 GMT-0500 (Central Daylight Time),415792.90000003576,bronze,900,I,m,m,None,835,636.0,199.0,66,1,2282.199999988079,413510.7000000477,7012,bronze,NF,C,411075,411075,409442,410358,409443,411724,410875,410875,411724,52
53,test,1,con,1,m,Thu Aug 29 2024 15:37:11 GMT-0500 (Central Daylight Time),418325.3000000119,silver,1000,I,m,m,None,972,773.0,199.0,83,1,2515.399999976158,415809.90000003576,7012,silver,NF,C,413474,413474,411741,412757,411742,414256,413274,413274,414256,53
54,test,1,inc,1,m,Thu Aug 29 2024 15:37:11 GMT-0500 (Central Daylight Time),420774.60000002384,cherry,900,I,m,m,None,995,796.0,199.0,94,1,2430.100000023842,418344.5,7012,cobalt,NF,C,415907,415907,414276,415190,414276,416706,415706,415707,416706,54
55,test,1,inc,1,z,Thu Aug 29 2024 15:37:11 GMT-0500 (Central Daylight Time),423023.8000000119,bronze,800,I,z,z,None,886,687.0,199.0,13,1,2231.399999976158,420792.40000003576,7012,cherry,NF,C,418256,418256,416723,417539,416724,418955,418056,418056,418955,55
56,test,1,inc,1,m,Thu Aug 29 2024 15:37:11 GMT-0500 (Central Daylight Time),425489.7000000477,pear,900,I,m,m,None,1009,810.0,199.0,110,1,2447.800000011921,423041.90000003576,7012,iron,NF,C,420605,420605,418973,419888,418974,421421,420405,420405,421421,56
57,test,1,con,1,m,Thu Aug 29 2024 15:37:11 GMT-0500 (Central Daylight Time),428055.60000002384,zinc,1000,I,m,m,None,1003,804.0,199.0,115,1,2547.800000011921,425507.8000000119,7012,zinc,NF,C,423171,423171,421439,422454,421440,423987,422971,422971,423987,57
58,test,1,inc,1,z,Thu Aug 29 2024 15:37:11 GMT-0500 (Central Daylight Time),430438.0,copper,900,I,z,z,None,921,722.0,199.0,30,1,2363.599999964237,428074.40000003576,7012,raisin,NF,C,425637,425637,424005,424920,424006,426369,425437,425437,426369,58
59,test,1,inc,1,z,Thu Aug 29 2024 15:37:11 GMT-0500 (Central Daylight Time),432720.7000000477,gold,800,I,z,z,None,919,720.0,199.0,61,1,2265.100000023842,430455.60000002384,7012,plum,NF,C,427919,427919,426387,427203,426388,428652,427719,427719,428652,59
60,test,1,inc,1,m,Thu Aug 29 2024 15:37:11 GMT-0500 (Central Daylight Time),435136.10000002384,banana,800,I,m,m,None,1053,854.0,199.0,85,1,2398.100000023842,432738.0,7012,silver,NF,C,430201,430201,428669,429485,428670,431067,430002,430002,431067,60
61,test,1,inc,1,z,Thu Aug 29 2024 15:37:11 GMT-0500 (Central Daylight Time),437752.40000003576,lead,1100,I,z,z,None,968,769.0,199.0,48,1,2606.5,435145.90000003576,7012,pear,NF,C,432901,432901,431077,432184,431077,433684,432701,432701,433683,61
62,test,1,inc,1,m,Thu Aug 29 2024 15:37:11 GMT-0500 (Central Daylight Time),440151.40000003576,cherry,900,I,m,m,None,946,746.0,200.0,70,1,2380.800000011921,437770.60000002384,7012,bronze,NF,C,435333,435333,433702,434617,433703,436083,435133,435133,436082,62
63,test,1,inc,1,z,Thu Aug 29 2024 15:37:11 GMT-0500 (Central Daylight Time),442634.10000002384,zinc,1000,I,z,z,None,924,725.0,199.0,39,1,2465.0,440169.10000002384,7012,lime,NF,C,437833,437833,436100,437116,436101,438565,437633,437633,438565,63
64,test,1,inc,1,m,Thu Aug 29 2024 15:37:11 GMT-0500 (Central Daylight Time),445116.3000000119,pear,900,I,m,m,None,1031,832.0,199.0,102,1,2465.099999964237,442651.2000000477,7012,gold,NF,C,440215,440215,438582,439499,438583,441047,440015,440015,441047,64
65,test,1,con,1,z,Thu Aug 29 2024 15:37:11 GMT-0500 (Central Daylight Time),447715.7000000477,pear,1100,I,z,z,None,940,741.0,199.0,44,1,2582.0,445133.7000000477,7012,pear,NF,C,442898,442898,441065,442181,441066,443647,442698,442698,443647,65
66,test,1,inc,1,z,Thu Aug 29 2024 15:37:11 GMT-0500 (Central Daylight Time),450198.10000002384,silver,1000,I,z,z,None,921,722.0,199.0,15,1,2465.300000011921,447732.8000000119,7012,cherry,NF,C,445397,445397,443664,444680,443665,446129,445197,445197,446129,66
67,test,1,inc,1,z,Thu Aug 29 2024 15:37:11 GMT-0500 (Central Daylight Time),453213.90000003576,lead,1100,I,z,z,None,1364,1164.0,200.0,56,1,2998.400000035763,450215.5,7012,kiwi,NF,C,447979,447979,446147,447263,446147,449145,447779,447779,449145,67
68,test,1,con,1,m,Thu Aug 29 2024 15:37:11 GMT-0500 (Central Daylight Time),455663.10000002384,lead,800,I,m,m,None,1095,896.0,199.0,121,1,2430.899999976158,453232.2000000477,7012,lead,NF,C,450695,450695,449163,449979,449164,451594,450495,450495,451594,68
69,test,1,inc,1,m,Thu Aug 29 2024 15:37:11 GMT-0500 (Central Daylight Time),458395.5,orange,1000,I,m,m,None,1174,975.0,199.0,95,1,2714.399999976158,455681.10000002384,7012,cobalt,NF,C,453344,453344,451612,452628,451613,454327,453144,453144,454327,69
70,test,1,inc,1,z,Thu Aug 29 2024 15:37:11 GMT-0500 (Central Daylight Time),460844.8000000119,bronze,800,I,z,z,None,1088,889.0,199.0,29,1,2432.0,458412.8000000119,7012,raisin,NF,C,455877,455877,454344,455160,454345,456776,455677,455677,456776,70
71,test,1,con,1,z,Thu Aug 29 2024 15:37:11 GMT-0500 (Central Daylight Time),463210.60000002384,banana,900,I,z,z,None,899,700.0,199.0,2,1,2348.600000023842,460862.0,7012,banana,NF,C,458426,458426,456793,457709,456794,459142,458226,458226,459142,71
72,test,1,con,1,z,Thu Aug 29 2024 15:37:11 GMT-0500 (Central Daylight Time),465693.10000002384,cherry,1000,I,z,z,None,922,723.0,199.0,11,1,2465.0,463228.10000002384,7012,cherry,NF,C,460892,460892,459159,460175,459160,461624,460692,460692,461624,72
73,test,1,con,1,m,Thu Aug 29 2024 15:37:11 GMT-0500 (Central Daylight Time),468276.0,silver,1100,I,m,m,None,932,733.0,199.0,84,1,2564.899999976158,465711.10000002384,7012,silver,NF,C,463474,463474,461642,462758,461643,464207,463274,463274,464207,73
74,test,1,inc,1,z,Thu Aug 29 2024 15:37:11 GMT-0500 (Central Daylight Time),470524.8000000119,gold,800,I,z,z,None,889,690.0,199.0,45,1,2231.099999964237,468293.7000000477,7012,pear,NF,C,465757,465757,464225,465040,464226,466456,465557,465557,466456,74
75,test,1,inc,1,m,Thu Aug 29 2024 15:37:11 GMT-0500 (Central Daylight Time),473823.7000000477,plum,1100,I,m,m,None,1635,1436.0,199.0,104,1,3281.5,470542.2000000477,7012,gold,NF,C,468306,468306,466473,467589,466474,469755,468106,468106,469755,75
76,test,1,con,1,z,Thu Aug 29 2024 15:37:11 GMT-0500 (Central Daylight Time),476139.2000000477,lime,800,I,z,z,None,948,749.0,199.0,33,1,2298.300000011921,473840.90000003576,7012,lime,NF,C,471305,471305,469772,470588,469773,472070,471105,471105,472070,76
77,test,1,inc,1,m,Thu Aug 29 2024 15:37:11 GMT-0500 (Central Daylight Time),478622.2000000477,kiwi,1000,I,m,m,None,938,739.0,199.0,127,1,2471.900000035763,476150.3000000119,7012,lead,NF,C,473804,473804,472081,473088,472082,474553,473604,473604,474553,77
78,test,1,con,1,m,Thu Aug 29 2024 15:37:11 GMT-0500 (Central Daylight Time),481304.7000000477,copper,1100,I,m,m,None,1027,828.0,199.0,76,1,2665.0,478639.7000000477,7012,copper,NF,C,476403,476403,474571,475687,474572,477236,476203,476203,477236,78
79,test,1,con,1,m,Thu Aug 29 2024 15:37:11 GMT-0500 (Central Daylight Time),483653.8000000119,gold,800,I,m,m,None,988,789.0,199.0,97,1,2331.199999988079,481322.60000002384,7012,gold,NF,C,478786,478786,477254,478069,477255,479585,478586,478586,479585,79
80,test,1,inc,1,m,Thu Aug 29 2024 15:37:11 GMT-0500 (Central Daylight Time),486236.10000002384,orange,1000,I,m,m,None,1030,831.0,199.0,79,1,2564.300000011921,483671.8000000119,7012,copper,NF,C,481335,481335,479603,480618,479604,482167,481135,481135,482167,80
81,test,1,con,1,z,Thu Aug 29 2024 15:37:11 GMT-0500 (Central Daylight Time),488468.7000000477,orange,800,I,z,z,None,881,682.0,199.0,17,1,2214.5,486254.2000000477,7012,orange,NF,C,483717,483717,482185,483001,482186,484400,483517,483518,484400,81
82,test,1,con,1,z,Thu Aug 29 2024 15:37:11 GMT-0500 (Central Daylight Time),490768.2000000477,lime,900,I,z,z,None,854,654.0,200.0,34,1,2287.300000011921,488480.90000003576,7012,lime,NF,C,486033,486033,484412,485317,484412,486699,485833,485833,486699,82
83,test,1,inc,1,z,Thu Aug 29 2024 15:37:11 GMT-0500 (Central Daylight Time),493084.10000002384,iron,900,I,z,z,None,858,658.0,200.0,54,1,2298.800000011921,490785.3000000119,7012,kiwi,NF,C,488349,488349,486716,487633,486717,489015,488149,488149,489015,83
84,test,1,inc,1,m,Thu Aug 29 2024 15:37:11 GMT-0500 (Central Daylight Time),495649.90000003576,kiwi,1000,I,m,m,None,1010,809.0,201.0,119,1,2548.100000023842,493101.8000000119,7012,zinc,NF,C,490765,490765,489033,490049,489034,491581,490564,490564,491581,84
85,test,1,con,1,z,Thu Aug 29 2024 15:37:11 GMT-0500 (Central Daylight Time),497899.2000000477,plum,800,I,z,z,None,882,683.0,199.0,57,1,2232.100000023842,495667.10000002384,7012,plum,NF,C,493131,493131,491598,492414,491599,493830,492931,492931,493830,85
86,test,1,inc,1,z,Thu Aug 29 2024 15:37:11 GMT-0500 (Central Daylight Time),500548.2000000477,cobalt,1100,I,z,z,None,989,790.0,199.0,8,1,2631.5,497916.7000000477,7012,banana,NF,C,495680,495680,493848,494964,493849,496479,495480,495480,496479,86
87,test,1,inc,1,z,Thu Aug 29 2024 15:37:11 GMT-0500 (Central Daylight Time),503197.3000000119,cobalt,1100,I,z,z,None,990,790.0,200.0,24,1,2632.0,500565.3000000119,7012,orange,NF,C,498329,498329,496496,497613,496497,499128,498129,498129,499128,87
88,test,1,inc,1,z,Thu Aug 29 2024 15:37:11 GMT-0500 (Central Daylight Time),505580.2000000477,iron,900,I,z,z,None,932,733.0,199.0,46,1,2365.900000035763,503214.3000000119,7012,pear,NF,C,500778,500778,499145,500061,499146,501511,500579,500579,501511,88
89,test,1,con,1,m,Thu Aug 29 2024 15:37:11 GMT-0500 (Central Daylight Time),507929.10000002384,iron,800,I,m,m,None,993,794.0,199.0,105,1,2331.800000011921,505597.3000000119,7012,iron,NF,C,503061,503061,501528,502344,501529,503860,502861,502861,503860,89
90,test,1,inc,1,z,Thu Aug 29 2024 15:37:11 GMT-0500 (Central Daylight Time),510528.3000000119,cobalt,1100,I,z,z,None,936,736.0,200.0,32,1,2583.399999976158,507944.90000003576,7012,raisin,NF,C,505710,505710,503876,504994,503877,506459,505510,505510,506459,90
91,test,1,con,1,z,Thu Aug 29 2024 15:37:11 GMT-0500 (Central Daylight Time),512894.2000000477,pear,800,I,z,z,None,1006,806.0,200.0,41,1,2348.300000011921,510545.90000003576,7012,pear,NF,C,508009,508009,506477,507293,506478,508825,507809,507809,508825,91
92,test,1,con,1,z,Thu Aug 29 2024 15:37:11 GMT-0500 (Central Daylight Time),515260.0,orange,900,I,z,z,None,908,708.0,200.0,18,1,2348.099999964237,512911.90000003576,7012,orange,NF,C,510475,510475,508843,509759,508844,511191,510275,510275,511191,92
93,test,1,inc,1,z,Thu Aug 29 2024 15:37:11 GMT-0500 (Central Daylight Time),517592.7000000477,bronze,800,I,z,z,None,976,777.0,199.0,21,1,2315.0,515277.7000000477,7012,orange,NF,C,512741,512741,511209,512025,511210,513524,512541,512541,513524,93
94,test,1,con,1,m,Thu Aug 29 2024 15:37:11 GMT-0500 (Central Daylight Time),520292.40000003576,cobalt,1100,I,m,m,None,1048,849.0,199.0,92,1,2681.600000023842,517610.8000000119,7012,cobalt,NF,C,515374,515374,513542,514657,513543,516223,515174,515174,516223,94
95,test,1,con,1,z,Thu Aug 29 2024 15:37:11 GMT-0500 (Central Daylight Time),522757.5,kiwi,1100,I,z,z,None,804,605.0,199.0,52,1,2447.399999976158,520310.10000002384,7012,kiwi,NF,C,518073,518073,516241,517356,516242,518689,517873,517873,518689,95
96,test,1,con,1,m,Thu Aug 29 2024 15:37:11 GMT-0500 (Central Daylight Time),525556.6000000238,iron,1100,I,m,m,None,1139,940.0,199.0,108,1,2781.399999976158,522775.2000000477,7012,iron,NF,C,520538,520539,518706,519822,518707,521488,520339,520339,521488,96
96,test,1,inc,0,m,Thu Aug 29 2024 15:37:11 GMT-0500 (Central Daylight Time),528039.2000000477,orange,1000,I,z,z,None,927,728.0,199.0,87,1,2465.600000023842,525573.6000000238,7012,silver,NF,C,523238,523238,521505,522521,521506,523970,523038,523038,523970,97
97,test,1,con,1,m,Thu Aug 29 2024 15:37:11 GMT-0500 (Central Daylight Time),531172.0,lead,1000,I,m,m,None,1582,1383.0,199.0,123,1,3115.899999976158,528056.1000000238,7012,lead,NF,C,525720,525720,523987,525004,523988,527103,525520,525520,527103,98
98,test,1,con,1,m,Thu Aug 29 2024 15:37:11 GMT-0500 (Central Daylight Time),533703.9000000358,iron,1000,I,m,m,None,969,770.0,199.0,107,1,2515.0,531188.9000000358,7012,iron,NF,C,528853,528853,527120,528136,527121,529635,528653,528653,529635,99
99,test,1,inc,1,m,Thu Aug 29 2024 15:37:11 GMT-0500 (Central Daylight Time),536303.0,raisin,1100,I,m,m,None,937,738.0,199.0,72,1,2581.2999999523163,533721.7000000477,7012,bronze,NF,C,531485,531485,529653,530768,529655,532234,531285,531285,532234,100
100,test,1,con,1,m,Thu Aug 29 2024 15:37:11 GMT-0500 (Central Daylight Time),539335.4000000358,gold,1100,I,m,m,None,1369,1170.0,199.0,100,1,3015.400000035763,536320.0,7012,gold,NF,C,534084,534084,532251,533368,532252,535267,533884,533884,535266,101
101,test,1,con,1,z,Thu Aug 29 2024 15:37:11 GMT-0500 (Central Daylight Time),541984.3000000119,plum,1100,I,z,z,None,993,794.0,199.0,60,1,2632.099999964237,539352.2000000477,7012,plum,NF,C,537116,537116,535283,536400,535284,537915,536916,536916,537915,102
102,test,1,inc,1,z,Thu Aug 29 2024 15:37:11 GMT-0500 (Central Daylight Time),544266.5,gold,800,I,z,z,None,948,749.0,199.0,53,1,2270.399999976158,541996.1000000238,7012,kiwi,NF,C,539448,539448,537927,538732,537928,540198,539249,539249,540198,103
103,test,1,inc,1,m,Thu Aug 29 2024 15:37:11 GMT-0500 (Central Daylight Time),546866.3000000119,raisin,1100,I,m,m,None,951,752.0,199.0,88,1,2594.899999976158,544271.4000000358,7012,silver,NF,C,542031,542031,540202,541315,540203,542797,541831,541832,542797,104
104,test,1,con,1,m,Thu Aug 29 2024 15:37:11 GMT-0500 (Central Daylight Time),549332.2000000477,cobalt,1000,I,m,m,None,916,716.0,200.0,91,1,2448.2000000476837,546884.0,7012,cobalt,NF,C,544547,544547,542815,543830,542816,545263,544347,544347,545263,105
105,test,1,inc,1,m,Thu Aug 29 2024 15:37:11 GMT-0500 (Central Daylight Time),552114.6000000238,plum,1100,I,m,m,None,1116,917.0,199.0,128,1,2765.0,549349.6000000238,7012,lead,NF,C,547113,547113,545281,546396,545281,548046,546914,546914,548046,106
106,test,1,con,1,m,Thu Aug 29 2024 15:37:11 GMT-0500 (Central Daylight Time),554563.8000000119,gold,900,I,m,m,None,990,790.0,200.0,98,1,2431.800000011921,552132.0,7012,gold,NF,C,549696,549696,548063,548979,548064,550495,549495,549495,550495,107
107,test,1,inc,1,z,Thu Aug 29 2024 15:37:11 GMT-0500 (Central Daylight Time),557179.4000000358,copper,900,I,z,z,None,1149,950.0,199.0,22,1,2598.100000023842,554581.3000000119,7012,orange,NF,C,552145,552145,550512,551428,550513,553111,551945,551945,553110,108
108,test,1,con,1,m,Thu Aug 29 2024 15:37:11 GMT-0500 (Central Daylight Time),559628.7000000477,cobalt,900,I,m,m,None,988,789.0,199.0,90,1,2431.100000023842,557197.6000000238,7012,cobalt,NF,C,554761,554761,553129,554044,553130,555560,554561,554561,555560,109
109,test,1,con,1,z,Thu Aug 29 2024 15:37:11 GMT-0500 (Central Daylight Time),562127.9000000358,plum,1000,I,z,z,None,935,736.0,199.0,59,1,2481.800000011921,559646.1000000238,7012,plum,NF,C,557310,557310,555577,556593,555579,558059,557110,557110,558059,110
110,test,1,con,1,m,Thu Aug 29 2024 15:37:11 GMT-0500 (Central Daylight Time),564827.1000000238,bronze,1100,I,m,m,None,1032,833.0,199.0,68,1,2680.399999976158,562146.7000000477,7012,bronze,NF,C,559909,559909,558078,559192,558079,560758,559709,559709,560758,111
111,test,1,inc,1,m,Thu Aug 29 2024 15:37:11 GMT-0500 (Central Daylight Time),567476.4000000358,orange,1000,I,m,m,None,1098,899.0,199.0,71,1,2632.600000023842,564843.8000000119,7012,bronze,NF,C,562508,562508,560775,561792,560776,563408,562308,562308,563407,112
112,test,1,con,1,z,Thu Aug 29 2024 15:37:11 GMT-0500 (Central Daylight Time),569808.8000000119,kiwi,900,I,z,z,None,869,669.0,200.0,50,1,2313.800000011921,567495.0,7012,kiwi,NF,C,565057,565057,563426,564340,563427,565740,564857,564857,565740,113
113,test,1,con,1,m,Thu Aug 29 2024 15:37:11 GMT-0500 (Central Daylight Time),572407.8000000119,gold,1000,I,m,m,None,1043,844.0,199.0,99,1,2581.399999976158,569826.4000000358,7012,gold,NF,C,567490,567490,565757,566773,565758,568339,567290,567290,568339,114
114,test,1,con,1,m,Thu Aug 29 2024 15:37:11 GMT-0500 (Central Daylight Time),575456.9000000358,zinc,800,I,m,m,None,1684,1485.0,199.0,113,1,3030.5,572426.4000000358,7012,zinc,NF,C,569889,569889,568357,569172,568358,571388,569689,569689,571388,115
115,test,1,con,1,z,Thu Aug 29 2024 15:37:11 GMT-0500 (Central Daylight Time),577822.6000000238,kiwi,800,I,z,z,None,1004,805.0,199.0,49,1,2348.100000023842,575474.5,7012,kiwi,NF,C,572938,572938,571406,572221,571406,573754,572738,572738,573754,116
116,test,1,inc,1,m,Thu Aug 29 2024 15:37:11 GMT-0500 (Central Daylight Time),580338.5,kiwi,1000,I,m,m,None,949,750.0,199.0,103,1,2497.399999976158,577841.1000000238,7012,gold,NF,C,575504,575504,573772,574787,573773,576270,575304,575304,576270,117
117,test,1,inc,1,z,Thu Aug 29 2024 15:37:11 GMT-0500 (Central Daylight Time),583104.3000000119,iron,900,I,z,z,None,1301,1102.0,199.0,62,1,2748.699999988079,580355.6000000238,7012,plum,NF,C,577919,577920,576287,577203,576287,579035,577719,577720,579035,118
118,test,1,inc,1,z,Thu Aug 29 2024 15:37:11 GMT-0500 (Central Daylight Time),585570.1000000238,silver,1000,I,z,z,None,901,701.0,200.0,31,1,2447.899999976158,583122.2000000477,7012,raisin,NF,C,580785,580785,579053,580069,579054,581501,580585,580585,581501,119
119,test,1,con,1,z,Thu Aug 29 2024 15:37:11 GMT-0500 (Central Daylight Time),587936.0,raisin,900,I,z,z,None,904,704.0,200.0,26,1,2349.199999988079,585586.8000000119,7012,raisin,NF,C,583151,583151,581518,582435,581519,583867,582951,582951,583867,120
120,test,1,con,1,z,Thu Aug 29 2024 15:37:11 GMT-0500 (Central Daylight Time),590468.3000000119,orange,1100,I,z,z,None,880,681.0,199.0,20,1,2515.599999964237,587952.7000000477,7012,orange,NF,C,585717,585717,583884,585000,583885,586399,585517,585517,586399,121
121,test,1,inc,1,z,Thu Aug 29 2024 15:37:11 GMT-0500 (Central Daylight Time),593350.9000000358,zinc,1000,I,z,z,None,1309,1104.0,205.0,47,1,2865.900000035763,590485.0,7012,pear,NF,C,588166,588166,586416,587433,586417,589282,587961,587961,589282,122
122,test,1,con,1,m,Thu Aug 29 2024 15:37:11 GMT-0500 (Central Daylight Time),595783.5,lead,900,I,m,m,None,969,770.0,199.0,122,1,2413.699999988079,593369.8000000119,7012,lead,NF,C,590932,590932,589301,590215,589301,591715,590732,590732,591714,123
123,test,1,inc,1,z,Thu Aug 29 2024 15:37:11 GMT-0500 (Central Daylight Time),598099.3000000119,bronze,800,I,z,z,None,959,759.0,200.0,5,1,2299.199999988079,595800.1000000238,7012,banana,NF,C,593264,593264,591731,592548,591732,594030,593064,593064,594030,124
124,test,1,con,1,z,Thu Aug 29 2024 15:37:11 GMT-0500 (Central Daylight Time),600431.9000000358,banana,800,I,z,z,None,978,778.0,200.0,1,1,2315.199999988079,598116.7000000477,7012,banana,NF,C,595580,595580,594048,594864,594049,596363,595380,595380,596363,125
125,test,1,con,1,z,Thu Aug 29 2024 15:37:11 GMT-0500 (Central Daylight Time),602997.7000000477,lime,1100,I,z,z,None,904,705.0,199.0,36,1,2547.800000011921,600449.9000000358,7012,lime,NF,C,598213,598213,596381,597496,596382,598929,598013,598013,598929,126
126,test,1,con,1,m,Thu Aug 29 2024 15:37:11 GMT-0500 (Central Daylight Time),605413.6000000238,copper,1000,I,m,m,None,862,663.0,199.0,75,1,2397.699999988079,603015.9000000358,7012,copper,NF,C,600679,600679,598947,599962,598948,601345,600479,600479,601345,127
127,test,1,con,1,z,Thu Aug 29 2024 15:37:11 GMT-0500 (Central Daylight Time),608396.0,cherry,1100,I,z,z,None,1315,1116.0,199.0,12,1,2964.7999999523163,605431.2000000477,7012,cherry,NF,C,603195,603195,601362,602478,601363,604327,602995,602995,604327,128
