acc_sum,block,block_c,condition,correct,correct_response,datetime,endtime,flanker,jitter,project,response,response_test_buffer_response,response_test_target_response,response_time,response_time_test_buffer_response,response_time_test_target_response,row_sel,session_number,start_end,starttime,subject_id,target,task,task_vers,time_test_buffer,time_test_buffer_response,time_test_constants,time_test_flanker,time_test_jitter,time_test_logger,time_test_target,time_test_target_response,time_test_variables,trial
1,prac,1,con,1,m,Wed Aug 28 2024 12:07:58 GMT-0500 (Central Daylight Time),211594.0,gold,800,I,m,,,411,,,13,1,2501.599999964237,209092.40000003576,9999,gold,NF,C,,,,,,,,,,1
2,prac,1,inc,1,z,Wed Aug 28 2024 12:07:58 GMT-0500 (Central Daylight Time),214226.40000003576,iron,900,I,z,,,413,,,6,1,2611.7000000476837,211614.69999998808,9999,pear,NF,C,,,,,,,,,,2
3,prac,1,con,1,m,Wed Aug 28 2024 12:07:58 GMT-0500 (Central Daylight Time),216942.0,silver,1000,I,m,,,385,,,11,1,2692.599999964237,214249.40000003576,9999,silver,NF,C,,,,,,,,,,3
4,prac,1,inc,1,m,Wed Aug 28 2024 12:07:58 GMT-0500 (Central Daylight Time),219674.30000001192,pear,900,I,m,,,513,,,14,1,2711.199999988079,216963.10000002384,9999,iron,NF,C,,,,,,,,,,4
5,prac,1,inc,1,m,Wed Aug 28 2024 12:07:58 GMT-0500 (Central Daylight Time),222390.10000002384,cherry,900,I,m,,,494,,,10,1,2694.300000011921,219695.80000001192,9999,copper,NF,C,,,,,,,,,,5
6,prac,1,con,1,m,Wed Aug 28 2024 12:07:58 GMT-0500 (Central Daylight Time),225105.90000003576,zinc,1000,I,m,,,397,,,15,1,2694.600000023842,222411.30000001192,9999,zinc,NF,C,,,,,,,,,,6
7,prac,1,con,1,z,Wed Aug 28 2024 12:07:58 GMT-0500 (Central Daylight Time),227721.80000001192,lime,800,I,z,,,489,,,5,1,2594.899999976158,225126.90000003576,9999,lime,NF,C,,,,,,,,,,7
8,prac,1,inc,1,z,Wed Aug 28 2024 12:07:58 GMT-0500 (Central Daylight Time),230820.60000002384,lead,1100,I,z,,,669,,,8,1,3077.5,227743.10000002384,9999,plum,NF,C,,,,,,,,,,8
9,prac,1,con,1,z,Wed Aug 28 2024 12:07:58 GMT-0500 (Central Daylight Time),233353.0,banana,800,I,z,,,405,,,1,1,2511.399999976158,230841.60000002384,9999,banana,NF,C,,,,,,,,,,9
9,prac,1,con,0,m,Wed Aug 28 2024 12:07:58 GMT-0500 (Central Daylight Time),238234.69999998808,bronze,800,I,None,,,1799,,,9,1,4859.699999988079,233375.0,9999,bronze,NF,C,,,,,,,,,,10
10,prac,1,inc,1,z,Wed Aug 28 2024 12:07:58 GMT-0500 (Central Daylight Time),241016.60000002384,copper,900,I,z,,,556,,,2,1,2762.600000023842,238254.0,9999,cherry,NF,C,,,,,,,,,,11
11,prac,1,con,1,z,Wed Aug 28 2024 12:07:58 GMT-0500 (Central Daylight Time),243882.30000001192,kiwi,1000,I,z,,,562,,,7,1,2860.0,241022.30000001192,9999,kiwi,NF,C,,,,,,,,,,12
12,prac,1,con,1,z,Wed Aug 28 2024 12:07:58 GMT-0500 (Central Daylight Time),246631.60000002384,orange,1000,I,z,,,440,,,3,1,2742.600000023842,243889.0,9999,orange,NF,C,,,,,,,,,,13
13,prac,1,inc,1,m,Wed Aug 28 2024 12:07:58 GMT-0500 (Central Daylight Time),249613.69999998808,raisin,1100,I,m,,,577,,,12,1,2971.2999999523163,246642.40000003576,9999,cobalt,NF,C,,,,,,,,,,14
14,prac,1,inc,1,m,Wed Aug 28 2024 12:07:58 GMT-0500 (Central Daylight Time),252563.40000003576,plum,1100,I,m,,,546,,,16,1,2943.7000000476837,249619.69999998808,9999,lead,NF,C,,,,,,,,,,15
15,prac,1,inc,1,z,Wed Aug 28 2024 12:07:58 GMT-0500 (Central Daylight Time),255545.10000002384,cobalt,1100,I,z,,,564,,,4,1,2960.800000011921,252584.30000001192,9999,raisin,NF,C,,,,,,,,,,16
1,test,1,inc,1,z,Wed Aug 28 2024 12:07:58 GMT-0500 (Central Daylight Time),292883.3000000119,lead,1100,I,z,z,None,697,498.0,199.0,48,1,2321.0,290562.3000000119,9999,pear,NF,C,289613,289613,287791,288897,287792,290112,289413,289413,290112,1
2,test,1,con,1,z,Wed Aug 28 2024 12:07:58 GMT-0500 (Central Daylight Time),294949.40000003576,pear,1000,I,z,z,None,511,312.0,199.0,43,1,2046.0,292903.40000003576,9999,pear,NF,C,291862,291863,290132,291146,290134,292179,291662,291663,292178,2
3,test,1,con,1,m,Wed Aug 28 2024 12:07:58 GMT-0500 (Central Daylight Time),297246.90000003576,zinc,1100,I,m,m,None,646,447.0,199.0,116,1,2278.900000035763,294968.0,9999,zinc,NF,C,294029,294029,292197,293312,292198,294476,293829,293829,294476,3
3,test,1,con,0,m,Wed Aug 28 2024 12:07:58 GMT-0500 (Central Daylight Time),299097.90000003576,gold,800,I,z,z,None,499,300.0,199.0,97,1,1842.6000000238419,297255.3000000119,9999,gold,NF,C,296011,296011,294484,295294,294485,296327,295811,295811,296327,4
4,test,1,con,1,z,Wed Aug 28 2024 12:07:58 GMT-0500 (Central Daylight Time),301163.90000003576,kiwi,1100,I,z,z,None,405,206.0,199.0,52,1,2046.300000011921,299117.60000002384,9999,kiwi,NF,C,298177,298177,296347,297460,296348,298393,297977,297977,298393,5
5,test,1,con,1,m,Wed Aug 28 2024 12:07:58 GMT-0500 (Central Daylight Time),303196.10000002384,iron,1000,I,m,m,None,471,272.0,199.0,107,1,2012.6000000238419,301183.5,9999,iron,NF,C,300143,300143,298413,299427,298414,300425,299943,299943,300425,6
6,test,1,con,1,m,Wed Aug 28 2024 12:07:58 GMT-0500 (Central Daylight Time),305245.90000003576,iron,1100,I,m,m,None,411,212.0,199.0,108,1,2041.0,303204.90000003576,9999,iron,NF,C,302259,302259,300434,301542,300434,302475,302059,302059,302475,7
7,test,1,inc,1,z,Wed Aug 28 2024 12:07:58 GMT-0500 (Central Daylight Time),307311.8000000119,iron,900,I,z,z,None,601,402.0,199.0,62,1,2044.3999999761581,305267.40000003576,9999,plum,NF,C,304125,304125,302496,303409,302497,304541,303925,303925,304541,8
8,test,1,inc,1,m,Wed Aug 28 2024 12:07:58 GMT-0500 (Central Daylight Time),309377.8000000119,banana,800,I,m,m,None,707,508.0,199.0,85,1,2045.5,307332.3000000119,9999,silver,NF,C,306091,306091,304561,305375,304563,306607,305891,305891,306607,9
9,test,1,con,1,z,Wed Aug 28 2024 12:07:58 GMT-0500 (Central Daylight Time),311327.10000002384,cherry,1000,I,z,z,None,393,194.0,199.0,11,1,1930.300000011921,309396.8000000119,9999,cherry,NF,C,308357,308357,306626,307640,306627,308556,308157,308157,308556,10
10,test,1,con,1,z,Wed Aug 28 2024 12:07:58 GMT-0500 (Central Daylight Time),313260.0,lime,1000,I,z,z,None,372,172.0,200.0,35,1,1912.800000011921,311347.1999999881,9999,lime,NF,C,310306,310307,308576,309590,308577,310489,310106,310106,310489,11
11,test,1,con,1,z,Wed Aug 28 2024 12:07:58 GMT-0500 (Central Daylight Time),315325.6999999881,orange,1000,I,z,z,None,511,312.0,199.0,19,1,2046.2999999523163,313279.40000003576,9999,orange,NF,C,312239,312239,310508,311522,310509,312555,312039,312039,312555,12
12,test,1,con,1,m,Wed Aug 28 2024 12:07:58 GMT-0500 (Central Daylight Time),317275.10000002384,copper,1000,I,m,m,None,397,198.0,199.0,75,1,1930.5,315344.60000002384,9999,copper,NF,C,314305,314305,312574,313588,312575,314504,314105,314105,314504,13
13,test,1,inc,1,m,Wed Aug 28 2024 12:07:58 GMT-0500 (Central Daylight Time),319341.1999999881,cherry,900,I,m,m,None,613,413.0,200.0,86,1,2046.199999988079,317295.0,9999,silver,NF,C,316154,316154,314524,315438,314525,316570,315954,315954,316570,14
14,test,1,con,1,m,Wed Aug 28 2024 12:07:58 GMT-0500 (Central Daylight Time),321273.90000003576,cobalt,800,I,m,m,None,566,366.0,200.0,89,1,1915.5,319358.40000003576,9999,cobalt,NF,C,318121,318121,316587,317404,316588,318503,317920,317920,318503,15
15,test,1,con,1,z,Wed Aug 28 2024 12:07:58 GMT-0500 (Central Daylight Time),323189.3000000119,cherry,800,I,z,z,None,554,354.0,200.0,9,1,1895.199999988079,321294.10000002384,9999,cherry,NF,C,320052,320052,318523,319337,318524,320418,319852,319852,320418,16
16,test,1,inc,1,m,Wed Aug 28 2024 12:07:58 GMT-0500 (Central Daylight Time),325205.6999999881,cherry,900,I,m,m,None,570,370.0,200.0,78,1,2010.199999988079,323195.5,9999,copper,NF,C,322053,322053,320425,321336,320425,322435,321852,321852,322435,17
17,test,1,inc,1,m,Wed Aug 28 2024 12:07:58 GMT-0500 (Central Daylight Time),327855.1999999881,lime,800,I,m,m,None,1285,1086.0,199.0,125,1,2627.2999999523163,325227.90000003576,9999,lead,NF,C,323985,323985,322457,323269,322458,325084,323785,323785,325084,18
18,test,1,con,1,m,Wed Aug 28 2024 12:07:58 GMT-0500 (Central Daylight Time),329787.6999999881,cobalt,900,I,m,m,None,472,273.0,199.0,90,1,1912.5999999642372,327875.10000002384,9999,cobalt,NF,C,326734,326734,325104,326018,325105,327017,326534,326534,327017,19
19,test,1,con,1,z,Wed Aug 28 2024 12:07:58 GMT-0500 (Central Daylight Time),331637.1999999881,kiwi,900,I,z,z,None,387,188.0,199.0,50,1,1830.2999999523163,329806.90000003576,9999,kiwi,NF,C,328667,328667,327036,327950,327037,328866,328467,328467,328866,20
20,test,1,con,1,m,Wed Aug 28 2024 12:07:58 GMT-0500 (Central Daylight Time),334019.6999999881,silver,1100,I,m,m,None,722,523.0,199.0,84,1,2361.7999999523163,331657.90000003576,9999,silver,NF,C,330716,330716,328887,330000,328888,331249,330516,330516,331249,21
21,test,1,con,1,z,Wed Aug 28 2024 12:07:58 GMT-0500 (Central Daylight Time),336468.8000000119,raisin,1000,I,z,z,None,895,696.0,199.0,27,1,2424.399999976158,334044.40000003576,9999,raisin,NF,C,332999,332999,331273,332282,331274,333698,332799,332799,333698,22
22,test,1,con,1,z,Wed Aug 28 2024 12:07:58 GMT-0500 (Central Daylight Time),338534.6999999881,lime,800,I,z,z,None,702,503.0,199.0,33,1,2046.8999999761581,336487.8000000119,9999,lime,NF,C,335248,335248,333717,334531,333718,335764,335048,335048,335764,23
23,test,1,inc,1,z,Wed Aug 28 2024 12:07:58 GMT-0500 (Central Daylight Time),340834.10000002384,lead,1100,I,z,z,None,658,458.0,200.0,40,1,2286.199999988079,338547.90000003576,9999,lime,NF,C,337597,337597,335777,336881,335777,338063,337397,337397,338063,24
24,test,1,con,1,m,Wed Aug 28 2024 12:07:58 GMT-0500 (Central Daylight Time),342866.60000002384,iron,800,I,m,m,None,681,482.0,199.0,105,1,2014.300000011921,340852.3000000119,9999,iron,NF,C,339613,339613,338081,338896,338082,340096,339413,339413,340096,25
25,test,1,inc,1,z,Wed Aug 28 2024 12:07:58 GMT-0500 (Central Daylight Time),345032.8000000119,zinc,1000,I,z,z,None,608,409.0,199.0,55,1,2146.699999988079,342886.10000002384,9999,kiwi,NF,C,341846,341846,340115,341129,340116,342262,341646,341646,342262,26
26,test,1,inc,1,m,Wed Aug 28 2024 12:07:58 GMT-0500 (Central Daylight Time),347248.60000002384,plum,1100,I,m,m,None,550,351.0,199.0,112,1,2197.600000023842,345051.0,9999,iron,NF,C,344112,344112,342280,343395,342281,344478,343912,343912,344478,27
27,test,1,inc,1,m,Wed Aug 28 2024 12:07:58 GMT-0500 (Central Daylight Time),349181.3000000119,banana,800,I,m,m,None,578,379.0,199.0,77,1,1913.8999999761581,347267.40000003576,9999,copper,NF,C,346028,346028,344496,345311,344497,346410,345828,345828,346410,28
28,test,1,con,1,z,Wed Aug 28 2024 12:07:58 GMT-0500 (Central Daylight Time),351230.6999999881,orange,800,I,z,z,None,693,494.0,199.0,17,1,2031.0999999642372,349199.60000002384,9999,orange,NF,C,347961,347961,346429,347244,346429,348460,347760,347761,348460,29
29,test,1,con,1,z,Wed Aug 28 2024 12:07:58 GMT-0500 (Central Daylight Time),353163.3000000119,raisin,800,I,z,z,None,580,381.0,199.0,25,1,1913.300000011921,351250.0,9999,raisin,NF,C,350010,350010,348479,349293,348480,350392,349810,349810,350392,30
30,test,1,inc,1,z,Wed Aug 28 2024 12:07:58 GMT-0500 (Central Daylight Time),355412.60000002384,cobalt,1100,I,z,z,None,597,397.0,200.0,16,1,2230.800000011921,353181.8000000119,9999,cherry,NF,C,352242,352242,350411,351526,350411,352642,352042,352042,352642,31
31,test,1,inc,1,m,Wed Aug 28 2024 12:07:58 GMT-0500 (Central Daylight Time),357761.90000003576,plum,1100,I,m,m,None,690,491.0,199.0,104,1,2330.600000023842,355431.3000000119,9999,gold,NF,C,354492,354492,352660,353775,352661,354991,354292,354292,354991,32
32,test,1,inc,1,m,Wed Aug 28 2024 12:07:58 GMT-0500 (Central Daylight Time),359694.40000003576,lime,800,I,m,m,None,577,378.0,199.0,117,1,1913.2000000476837,357781.1999999881,9999,zinc,NF,C,356541,356541,355010,355824,355011,356924,356341,356341,356923,33
33,test,1,con,1,m,Wed Aug 28 2024 12:07:58 GMT-0500 (Central Daylight Time),361610.5,bronze,900,I,m,m,None,456,257.0,199.0,66,1,1897.0999999642372,359713.40000003576,9999,bronze,NF,C,358574,358574,356942,357857,356943,358840,358374,358374,358840,34
34,test,1,inc,1,z,Wed Aug 28 2024 12:07:58 GMT-0500 (Central Daylight Time),363626.6999999881,copper,900,I,z,z,None,564,365.0,199.0,14,1,1997.5,361629.1999999881,9999,cherry,NF,C,360490,360490,358858,359773,358859,360856,360289,360290,360856,35
35,test,1,inc,1,m,Wed Aug 28 2024 12:07:58 GMT-0500 (Central Daylight Time),365692.5,orange,1000,I,m,m,None,512,313.0,199.0,87,1,2046.5999999642372,363645.90000003576,9999,silver,NF,C,362606,362606,360875,361889,360876,362922,362406,362406,362922,36
36,test,1,con,1,z,Wed Aug 28 2024 12:07:58 GMT-0500 (Central Daylight Time),367875.10000002384,plum,1100,I,z,z,None,530,331.0,199.0,60,1,2165.300000011921,365709.8000000119,9999,plum,NF,C,364771,364772,362939,364055,362939,365104,364572,364572,365104,37
37,test,1,inc,1,m,Wed Aug 28 2024 12:07:58 GMT-0500 (Central Daylight Time),370191.10000002384,raisin,1100,I,m,m,None,652,453.0,199.0,80,1,2297.300000011921,367893.8000000119,9999,copper,NF,C,366954,366954,365123,366238,365124,367420,366754,366754,367420,38
38,test,1,con,1,m,Wed Aug 28 2024 12:07:58 GMT-0500 (Central Daylight Time),372323.60000002384,cobalt,1000,I,m,m,None,580,381.0,199.0,91,1,2114.100000023842,370209.5,9999,cobalt,NF,C,369170,369170,367438,368454,367440,369553,368970,368970,369553,39
39,test,1,inc,1,z,Wed Aug 28 2024 12:07:58 GMT-0500 (Central Daylight Time),374356.3000000119,gold,800,I,z,z,None,672,473.0,199.0,53,1,2013.6000000238419,372342.6999999881,9999,kiwi,NF,C,371102,371102,369572,370386,369573,371585,370903,370903,371585,40
40,test,1,inc,1,z,Wed Aug 28 2024 12:07:58 GMT-0500 (Central Daylight Time),376221.90000003576,bronze,800,I,z,z,None,510,310.0,200.0,13,1,1846.7000000476837,374375.1999999881,9999,cherry,NF,C,373136,373136,371604,372419,371605,373451,372935,372935,373451,41
41,test,1,inc,1,z,Wed Aug 28 2024 12:07:58 GMT-0500 (Central Daylight Time),378121.60000002384,bronze,800,I,z,z,None,558,359.0,199.0,5,1,1890.1000000238419,376231.5,9999,banana,NF,C,374984,374984,373461,374268,373461,375351,374785,374785,375351,42
42,test,1,inc,1,z,Wed Aug 28 2024 12:07:58 GMT-0500 (Central Daylight Time),380137.8000000119,bronze,800,I,z,z,None,674,475.0,199.0,21,1,2001.699999988079,378136.10000002384,9999,orange,NF,C,376884,376884,375365,376168,375366,377367,376684,376684,377367,43
43,test,1,con,1,m,Wed Aug 28 2024 12:07:58 GMT-0500 (Central Daylight Time),382403.6999999881,zinc,900,I,m,m,None,814,614.0,200.0,114,1,2246.7999999523163,380156.90000003576,9999,zinc,NF,C,379017,379017,377386,378300,377387,379633,378817,378817,379633,44
44,test,1,con,1,m,Wed Aug 28 2024 12:07:58 GMT-0500 (Central Daylight Time),384353.10000002384,gold,900,I,m,m,None,483,283.0,200.0,98,1,1933.0,382420.10000002384,9999,gold,NF,C,381283,381283,379649,380566,379650,381582,381082,381082,381582,45
45,test,1,inc,1,z,Wed Aug 28 2024 12:07:58 GMT-0500 (Central Daylight Time),386269.0,gold,800,I,z,z,None,555,355.0,200.0,37,1,1897.300000011921,384371.6999999881,9999,lime,NF,C,383132,383132,381601,382416,381602,383498,382932,382932,383498,46
46,test,1,inc,1,z,Wed Aug 28 2024 12:07:58 GMT-0500 (Central Daylight Time),388202.10000002384,bronze,800,I,z,z,None,583,383.0,200.0,29,1,1914.0,386288.10000002384,9999,raisin,NF,C,385048,385048,383517,384332,383518,385431,384848,384848,385431,47
47,test,1,inc,1,m,Wed Aug 28 2024 12:07:58 GMT-0500 (Central Daylight Time),390384.40000003576,orange,1000,I,m,m,None,625,426.0,199.0,95,1,2164.300000011921,388220.10000002384,9999,cobalt,NF,C,387181,387181,385449,386464,385450,387613,386981,386981,387613,48
48,test,1,inc,1,m,Wed Aug 28 2024 12:07:58 GMT-0500 (Central Daylight Time),392550.3000000119,raisin,1100,I,m,m,None,503,304.0,199.0,72,1,2147.800000011921,390402.5,9999,bronze,NF,C,389463,389463,387632,388747,387632,389779,389263,389263,389779,49
49,test,1,inc,1,z,Wed Aug 28 2024 12:07:58 GMT-0500 (Central Daylight Time),394565.8000000119,copper,900,I,z,z,None,552,353.0,199.0,30,1,1997.3999999761581,392568.40000003576,9999,raisin,NF,C,391429,391429,389797,390713,389798,391795,391229,391229,391795,50
50,test,1,con,1,m,Wed Aug 28 2024 12:07:58 GMT-0500 (Central Daylight Time),396781.5,lead,800,I,m,m,None,868,653.0,215.0,121,1,2210.300000011921,394571.1999999881,9999,lead,NF,C,393345,393345,391800,392612,391801,394011,393129,393129,394011,51
51,test,1,con,1,m,Wed Aug 28 2024 12:07:58 GMT-0500 (Central Daylight Time),399364.6999999881,bronze,1100,I,m,m,None,937,738.0,199.0,68,1,2577.699999988079,396787.0,9999,bronze,NF,C,395844,395845,394016,395128,394016,396594,395645,395645,396594,52
52,test,1,con,1,z,Wed Aug 28 2024 12:07:58 GMT-0500 (Central Daylight Time),402563.5,plum,800,I,z,z,None,1838,1639.0,199.0,57,1,3180.5,399383.0,9999,plum,NF,C,398144,398144,396612,397427,396613,399793,397944,397944,399792,53
52,test,1,inc,0,m,Wed Aug 28 2024 12:07:58 GMT-0500 (Central Daylight Time),406028.8000000119,pear,900,I,None,None,None,1815,1815.0,199.0,102,1,3445.800000011921,402583.0,9999,gold,NF,C,401443,401443,399812,400726,399813,403258,401243,401243,403258,54
53,test,1,inc,1,m,Wed Aug 28 2024 12:07:58 GMT-0500 (Central Daylight Time),408428.40000003576,raisin,1100,I,m,m,None,729,530.0,199.0,88,1,2365.2000000476837,406063.1999999881,9999,silver,NF,C,405125,405125,403292,404408,403293,405658,404925,404925,405657,55
53,test,1,inc,0,z,Wed Aug 28 2024 12:07:58 GMT-0500 (Central Daylight Time),410894.1999999881,copper,900,I,m,m,None,1010,811.0,199.0,6,1,2448.5,408445.6999999881,9999,banana,NF,C,407307,407308,405675,406591,405675,408123,407107,407108,408123,56
53,test,1,inc,0,m,Wed Aug 28 2024 12:07:58 GMT-0500 (Central Daylight Time),414443.1999999881,kiwi,1000,I,None,None,None,1799,1799.0,200.0,111,1,3530.199999988079,410913.0,9999,iron,NF,C,409873,409873,408142,409157,408143,411672,409673,409673,411672,57
54,test,1,con,1,z,Wed Aug 28 2024 12:07:58 GMT-0500 (Central Daylight Time),416559.0,banana,900,I,z,z,None,660,461.0,199.0,2,1,2097.599999964237,414461.40000003576,9999,banana,NF,C,413322,413322,411690,412605,411691,413788,413122,413122,413788,58
55,test,1,inc,1,z,Wed Aug 28 2024 12:07:58 GMT-0500 (Central Daylight Time),418891.6999999881,iron,900,I,z,z,None,872,673.0,199.0,38,1,2316.599999964237,416575.10000002384,9999,lime,NF,C,415438,415438,413804,414722,413805,416121,415238,415238,416121,59
56,test,1,con,1,z,Wed Aug 28 2024 12:07:58 GMT-0500 (Central Daylight Time),420741.10000002384,pear,900,I,z,z,None,395,196.0,199.0,42,1,1831.4000000357628,418909.6999999881,9999,pear,NF,C,417771,417771,416139,417054,416140,417970,417571,417571,417970,60
57,test,1,con,1,m,Wed Aug 28 2024 12:07:58 GMT-0500 (Central Daylight Time),423240.1999999881,copper,1100,I,m,m,None,842,643.0,199.0,76,1,2481.199999988079,420759.0,9999,copper,NF,C,419820,419820,417988,419103,417989,420469,419620,419620,420469,61
58,test,1,inc,1,z,Wed Aug 28 2024 12:07:58 GMT-0500 (Central Daylight Time),425456.1999999881,cobalt,1100,I,z,z,None,559,360.0,199.0,24,1,2196.899999976158,423259.3000000119,9999,orange,NF,C,422319,422319,420488,421603,420489,422685,422119,422119,422685,62
59,test,1,inc,1,z,Wed Aug 28 2024 12:07:58 GMT-0500 (Central Daylight Time),427438.8000000119,copper,900,I,z,z,None,528,328.0,200.0,22,1,1964.199999988079,425474.60000002384,9999,orange,NF,C,424335,424335,422704,423619,422705,424668,424135,424135,424668,63
60,test,1,con,1,z,Wed Aug 28 2024 12:07:58 GMT-0500 (Central Daylight Time),429854.60000002384,cherry,1100,I,z,z,None,760,561.0,199.0,12,1,2396.400000035763,427458.1999999881,9999,cherry,NF,C,426518,426518,424687,425801,424688,427084,426318,426318,427084,64
61,test,1,inc,1,z,Wed Aug 28 2024 12:07:58 GMT-0500 (Central Daylight Time),432187.1999999881,lead,1100,I,z,z,None,672,473.0,199.0,64,1,2313.099999964237,429874.10000002384,9999,plum,NF,C,428934,428934,427103,428217,427104,429416,428734,428734,429416,65
62,test,1,inc,1,z,Wed Aug 28 2024 12:07:58 GMT-0500 (Central Daylight Time),434569.6999999881,silver,1000,I,z,z,None,825,625.0,200.0,23,1,2364.0,432205.6999999881,9999,orange,NF,C,431166,431166,429435,430450,429436,431799,430966,430966,431799,66
63,test,1,con,1,m,Wed Aug 28 2024 12:07:58 GMT-0500 (Central Daylight Time),436652.5,bronze,800,I,m,m,None,729,530.0,199.0,65,1,2064.399999976158,434588.10000002384,9999,bronze,NF,C,433349,433349,431817,432632,431818,433882,433149,433149,433881,67
64,test,1,inc,1,z,Wed Aug 28 2024 12:07:58 GMT-0500 (Central Daylight Time),439334.90000003576,cobalt,1100,I,z,z,None,1028,828.0,200.0,8,1,2663.0,436671.90000003576,9999,banana,NF,C,435731,435731,433901,435015,433902,436564,435531,435531,436564,68
65,test,1,con,1,z,Wed Aug 28 2024 12:07:58 GMT-0500 (Central Daylight Time),441634.5,kiwi,800,I,z,z,None,948,749.0,199.0,49,1,2281.399999976158,439353.10000002384,9999,kiwi,NF,C,438114,438114,436582,437397,436583,438864,437914,437914,438864,69
66,test,1,inc,1,m,Wed Aug 28 2024 12:07:58 GMT-0500 (Central Daylight Time),444032.6999999881,orange,1000,I,m,m,None,849,650.0,199.0,71,1,2380.2999999523163,441652.40000003576,9999,bronze,NF,C,440612,440612,438881,439897,438882,441262,440413,440413,441262,70
67,test,1,inc,1,m,Wed Aug 28 2024 12:07:58 GMT-0500 (Central Daylight Time),445949.40000003576,banana,800,I,m,m,None,578,379.0,199.0,93,1,1911.800000011921,444037.60000002384,9999,cobalt,NF,C,442796,442796,441267,442079,441267,443178,442596,442596,443178,71
68,test,1,con,1,m,Wed Aug 28 2024 12:07:58 GMT-0500 (Central Daylight Time),449181.60000002384,lead,900,I,m,m,None,1778,1578.0,200.0,122,1,3214.0,445967.60000002384,9999,lead,NF,C,444828,444829,443197,444111,443198,446411,444628,444628,446411,72
69,test,1,inc,1,m,Wed Aug 28 2024 12:07:58 GMT-0500 (Central Daylight Time),451530.5,plum,1100,I,m,m,None,697,498.0,199.0,120,1,2330.599999964237,449199.90000003576,9999,zinc,NF,C,448261,448261,446429,447546,446430,448760,448061,448061,448759,73
70,test,1,con,1,z,Wed Aug 28 2024 12:07:58 GMT-0500 (Central Daylight Time),453946.90000003576,raisin,900,I,z,z,None,964,765.0,199.0,26,1,2398.300000011921,451548.60000002384,9999,raisin,NF,C,450410,450410,448778,449693,448779,451176,450210,450210,451176,74
71,test,1,inc,1,m,Wed Aug 28 2024 12:07:58 GMT-0500 (Central Daylight Time),456229.1999999881,lime,800,I,m,m,None,920,721.0,199.0,101,1,2262.399999976158,453966.8000000119,9999,gold,NF,C,452726,452726,451196,452009,451197,453458,452526,452526,453458,75
72,test,1,inc,1,m,Wed Aug 28 2024 12:07:58 GMT-0500 (Central Daylight Time),458461.90000003576,cherry,900,I,m,m,None,779,579.0,200.0,70,1,2213.300000011921,456248.60000002384,9999,bronze,NF,C,455108,455108,453478,454392,453479,455691,454908,454908,455691,76
73,test,1,inc,1,z,Wed Aug 28 2024 12:07:58 GMT-0500 (Central Daylight Time),460778.1999999881,silver,1000,I,z,z,None,765,566.0,199.0,7,1,2297.699999988079,458480.5,9999,banana,NF,C,457441,457441,455709,456724,455711,458007,457241,457241,458007,77
74,test,1,con,1,z,Wed Aug 28 2024 12:07:58 GMT-0500 (Central Daylight Time),463193.60000002384,kiwi,1000,I,z,z,None,858,658.0,200.0,51,1,2397.699999988079,460795.90000003576,9999,kiwi,NF,C,459757,459757,458025,459040,458025,460423,459556,459556,460423,78
75,test,1,con,1,z,Wed Aug 28 2024 12:07:58 GMT-0500 (Central Daylight Time),466059.1999999881,pear,800,I,z,z,None,1513,1314.0,199.0,41,1,2847.399999976158,463211.8000000119,9999,pear,NF,C,461973,461973,460441,461256,460442,463288,461773,461773,463288,79
76,test,1,inc,1,z,Wed Aug 28 2024 12:07:58 GMT-0500 (Central Daylight Time),468541.90000003576,zinc,1000,I,z,z,None,921,721.0,200.0,63,1,2466.0,466075.90000003576,9999,plum,NF,C,465038,465038,463305,464322,463305,465771,464838,464838,465771,80
77,test,1,con,1,m,Wed Aug 28 2024 12:07:58 GMT-0500 (Central Daylight Time),470907.6999999881,lead,1000,I,m,m,None,805,606.0,199.0,123,1,2347.899999976158,468559.8000000119,9999,lead,NF,C,467521,467521,465789,466804,465790,468137,467321,467321,468137,81
78,test,1,con,1,z,Wed Aug 28 2024 12:07:58 GMT-0500 (Central Daylight Time),474173.40000003576,plum,1000,I,z,z,None,1703,1504.0,199.0,59,1,3247.800000011921,470925.60000002384,9999,plum,NF,C,469887,469887,468155,469171,468156,471403,469687,469687,471402,82
79,test,1,con,1,z,Wed Aug 28 2024 12:07:58 GMT-0500 (Central Daylight Time),476506.5,raisin,1100,I,z,z,None,682,482.0,200.0,28,1,2314.800000011921,474191.6999999881,9999,raisin,NF,C,473252,473253,471421,472536,471422,473736,473052,473052,473736,83
80,test,1,con,1,m,Wed Aug 28 2024 12:07:58 GMT-0500 (Central Daylight Time),478538.40000003576,silver,900,I,m,m,None,581,382.0,199.0,82,1,2012.6000000238419,476525.8000000119,9999,silver,NF,C,475385,475385,473755,474668,473756,475767,475185,475185,475767,84
81,test,1,inc,1,m,Wed Aug 28 2024 12:07:58 GMT-0500 (Central Daylight Time),480454.5,lime,800,I,m,m,None,552,353.0,199.0,109,1,1898.699999988079,478555.8000000119,9999,iron,NF,C,477318,477318,475785,476601,475785,477684,477118,477118,477683,85
82,test,1,inc,1,z,Wed Aug 28 2024 12:07:58 GMT-0500 (Central Daylight Time),483287.0,zinc,1000,I,z,z,None,1276,1077.0,199.0,39,1,2814.099999964237,480472.90000003576,9999,lime,NF,C,479434,479434,477702,478717,477703,480516,479234,479234,480516,86
83,test,1,inc,1,m,Wed Aug 28 2024 12:07:58 GMT-0500 (Central Daylight Time),485452.90000003576,cherry,900,I,m,m,None,712,513.0,199.0,94,1,2147.0,483305.90000003576,9999,cobalt,NF,C,482166,482166,480535,481449,480536,482682,481966,481966,482682,87
83,test,1,inc,0,z,Wed Aug 28 2024 12:07:58 GMT-0500 (Central Daylight Time),487985.40000003576,gold,800,I,m,m,None,1174,975.0,199.0,45,1,2514.2000000476837,485471.1999999881,9999,pear,NF,C,484232,484232,482700,483516,482701,485214,484032,484032,485214,88
83,test,1,con,0,m,Wed Aug 28 2024 12:07:58 GMT-0500 (Central Daylight Time),490418.0,silver,800,I,z,z,None,1065,866.0,199.0,81,1,2414.099999964237,488003.90000003576,9999,silver,NF,C,486765,486765,485233,486048,485234,487647,486565,486565,487647,89
84,test,1,inc,1,z,Wed Aug 28 2024 12:07:58 GMT-0500 (Central Daylight Time),492500.5,iron,900,I,z,z,None,629,430.0,199.0,46,1,2064.699999988079,490435.8000000119,9999,pear,NF,C,489297,489297,487665,488581,487665,489730,489097,489097,489730,90
85,test,1,con,1,z,Wed Aug 28 2024 12:07:58 GMT-0500 (Central Daylight Time),494566.10000002384,orange,900,I,z,z,None,601,402.0,199.0,18,1,2046.800000011921,492519.3000000119,9999,orange,NF,C,491380,491380,489748,490663,489749,491795,491180,491180,491795,91
86,test,1,con,1,z,Wed Aug 28 2024 12:07:58 GMT-0500 (Central Daylight Time),496649.1999999881,cherry,900,I,z,z,None,632,433.0,199.0,10,1,2076.399999976158,494572.8000000119,9999,cherry,NF,C,493429,493429,491802,492712,491802,493878,493229,493229,493878,92
87,test,1,inc,1,m,Wed Aug 28 2024 12:07:58 GMT-0500 (Central Daylight Time),498831.90000003576,plum,1100,I,m,m,None,527,327.0,200.0,128,1,2164.2000000476837,496667.6999999881,9999,lead,NF,C,495728,495728,493897,495012,493898,496061,495528,495528,496061,93
88,test,1,con,1,m,Wed Aug 28 2024 12:07:58 GMT-0500 (Central Daylight Time),501647.60000002384,bronze,1000,I,m,m,None,1259,1060.0,199.0,67,1,2797.400000035763,498850.1999999881,9999,bronze,NF,C,497811,497811,496079,497094,496080,498877,497611,497611,498877,94
89,test,1,inc,1,z,Wed Aug 28 2024 12:07:58 GMT-0500 (Central Daylight Time),504046.6999999881,gold,800,I,z,z,None,1034,835.0,199.0,61,1,2379.699999988079,501667.0,9999,plum,NF,C,500427,500427,498896,499710,498897,501276,500227,500227,501276,95
90,test,1,con,1,z,Wed Aug 28 2024 12:07:58 GMT-0500 (Central Daylight Time),506479.3000000119,orange,1100,I,z,z,None,768,569.0,199.0,20,1,2413.899999976158,504065.40000003576,9999,orange,NF,C,503126,503126,501294,502409,501295,503708,502926,502926,503708,96
91,test,1,con,1,z,Wed Aug 28 2024 12:07:58 GMT-0500 (Central Daylight Time),509028.5,banana,1100,I,z,z,None,889,689.0,200.0,4,1,2530.800000011921,506497.6999999881,9999,banana,NF,C,505558,505558,503727,504842,503728,506258,505358,505358,506258,97
91,test,1,con,0,z,Wed Aug 28 2024 12:07:58 GMT-0500 (Central Daylight Time),511210.90000003576,plum,900,I,m,m,None,730,531.0,199.0,58,1,2164.100000023842,509046.8000000119,9999,plum,NF,C,507908,507908,506276,507191,506277,508440,507708,507708,508440,98
91,test,1,con,0,z,Wed Aug 28 2024 12:07:58 GMT-0500 (Central Daylight Time),513510.40000003576,banana,1000,I,m,m,None,736,537.0,199.0,3,1,2280.900000035763,511229.5,9999,banana,NF,C,510190,510190,508459,509474,508460,510740,509990,509990,510739,99
92,test,1,inc,1,m,Wed Aug 28 2024 12:07:58 GMT-0500 (Central Daylight Time),515892.90000003576,raisin,1100,I,m,m,None,730,530.0,200.0,96,1,2364.400000035763,513528.5,9999,cobalt,NF,C,512589,512589,510758,511873,510759,513122,512389,512389,513122,100
93,test,1,inc,1,m,Wed Aug 28 2024 12:07:58 GMT-0500 (Central Daylight Time),518158.90000003576,pear,900,I,m,m,None,809,610.0,199.0,126,1,2247.600000023842,515911.3000000119,9999,lead,NF,C,514772,514772,513140,514055,513141,515388,514572,514572,515388,101
94,test,1,inc,1,z,Wed Aug 28 2024 12:07:58 GMT-0500 (Central Daylight Time),520474.6999999881,iron,900,I,z,z,None,864,665.0,199.0,54,1,2298.0,518176.6999999881,9999,kiwi,NF,C,517038,517038,515406,516321,515407,517704,516838,516838,517704,102
95,test,1,inc,1,m,Wed Aug 28 2024 12:07:58 GMT-0500 (Central Daylight Time),522789.90000003576,kiwi,1000,I,m,m,None,758,559.0,199.0,103,1,2297.2000000476837,520492.6999999881,9999,gold,NF,C,519454,519454,517722,518737,517723,520019,519254,519254,520019,103
96,test,1,inc,1,m,Wed Aug 28 2024 12:07:58 GMT-0500 (Central Daylight Time),524956.5,pear,900,I,m,m,None,721,522.0,199.0,110,1,2161.300000011921,522795.1999999881,9999,iron,NF,C,521653,521653,520024,520937,520024,522186,521453,521453,522186,104
96,test,1,con,0,z,Wed Aug 28 2024 12:07:58 GMT-0500 (Central Daylight Time),527855.6000000238,lime,1100,I,m,m,None,1235,1035.0,200.0,36,1,2881.0,524974.6000000238,9999,lime,NF,C,524036,524036,522204,523319,522204,525085,523835,523835,525085,105
97,test,1,con,1,m,Wed Aug 28 2024 12:07:58 GMT-0500 (Central Daylight Time),530654.1000000238,lead,1100,I,m,m,None,1142,943.0,199.0,124,1,2780.400000035763,527873.6999999881,9999,lead,NF,C,526935,526935,525103,526218,525104,527883,526735,526735,527883,106
98,test,1,con,1,m,Wed Aug 28 2024 12:07:58 GMT-0500 (Central Daylight Time),532787.3000000119,copper,800,I,m,m,None,797,598.0,199.0,73,1,2126.399999976158,530660.9000000358,9999,copper,NF,C,529417,529417,527890,528701,527890,530016,529217,529217,530016,107
99,test,1,con,1,m,Wed Aug 28 2024 12:07:58 GMT-0500 (Central Daylight Time),534686.6000000238,zinc,800,I,m,m,None,537,337.0,200.0,113,1,1880.300000011921,532806.3000000119,9999,zinc,NF,C,531566,531566,530035,530850,530036,531916,531366,531366,531916,108
100,test,1,con,1,m,Wed Aug 28 2024 12:07:58 GMT-0500 (Central Daylight Time),536836.0,gold,1000,I,m,m,None,596,397.0,199.0,99,1,2130.300000011921,534705.6999999881,9999,gold,NF,C,533666,533666,531935,532949,531936,534065,533466,533466,534065,109
101,test,1,inc,1,z,Wed Aug 28 2024 12:07:58 GMT-0500 (Central Daylight Time),539101.6000000238,zinc,1000,I,z,z,None,710,511.0,199.0,47,1,2247.0,536854.6000000238,9999,pear,NF,C,535815,535815,534084,535098,534085,536331,535615,535615,536331,110
102,test,1,inc,1,m,Wed Aug 28 2024 12:07:58 GMT-0500 (Central Daylight Time),541184.5,orange,1000,I,m,m,None,517,318.0,199.0,79,1,2067.099999964237,539117.4000000358,9999,copper,NF,C,538081,538081,536346,537364,536347,538414,537881,537881,538413,111
103,test,1,inc,1,m,Wed Aug 28 2024 12:07:58 GMT-0500 (Central Daylight Time),543217.1000000238,kiwi,1000,I,m,m,None,466,267.0,199.0,119,1,2014.6000000238419,541202.5,9999,zinc,NF,C,540163,540163,538432,539447,538432,540446,539963,539964,540446,112
104,test,1,con,1,z,Wed Aug 28 2024 12:07:58 GMT-0500 (Central Daylight Time),545450.1000000238,pear,1100,I,z,z,None,581,366.0,215.0,44,1,2215.400000035763,543234.6999999881,9999,pear,NF,C,542313,542313,540464,541580,540465,542679,542097,542097,542679,113
105,test,1,con,1,m,Wed Aug 28 2024 12:07:58 GMT-0500 (Central Daylight Time),547399.3000000119,copper,900,I,m,m,None,484,285.0,199.0,74,1,1930.3999999761581,545468.9000000358,9999,copper,NF,C,544329,544329,542698,543612,542699,544628,544129,544129,544628,114
106,test,1,inc,1,m,Wed Aug 28 2024 12:07:58 GMT-0500 (Central Daylight Time),549365.4000000358,pear,900,I,m,m,None,505,305.0,200.0,118,1,1947.300000011921,547418.1000000238,9999,zinc,NF,C,546278,546278,544647,545562,544648,546594,546078,546078,546594,115
107,test,1,inc,1,z,Wed Aug 28 2024 12:07:58 GMT-0500 (Central Daylight Time),551664.4000000358,silver,1000,I,z,z,None,724,510.0,214.0,31,1,2281.2000000476837,549383.1999999881,9999,raisin,NF,C,548377,548377,546612,547627,546613,548894,548163,548163,548893,116
108,test,1,con,1,m,Wed Aug 28 2024 12:07:58 GMT-0500 (Central Daylight Time),553747.1000000238,zinc,1000,I,m,m,None,523,323.0,200.0,115,1,2064.900000035763,551682.1999999881,9999,zinc,NF,C,550643,550643,548911,549927,548912,550976,550443,550443,550976,117
109,test,1,inc,1,z,Wed Aug 28 2024 12:07:58 GMT-0500 (Central Daylight Time),555962.8000000119,cobalt,1100,I,z,z,None,564,365.0,199.0,32,1,2197.100000023842,553765.6999999881,9999,raisin,NF,C,552826,552826,550995,552109,550996,553192,552626,552626,553192,118
110,test,1,inc,1,z,Wed Aug 28 2024 12:07:58 GMT-0500 (Central Daylight Time),558145.6000000238,lead,1100,I,z,z,None,523,324.0,199.0,56,1,2164.699999988079,555980.9000000358,9999,kiwi,NF,C,555042,555042,553210,554325,553211,555375,554842,554842,555375,119
111,test,1,inc,1,m,Wed Aug 28 2024 12:07:58 GMT-0500 (Central Daylight Time),559978.1000000238,banana,800,I,m,m,None,480,281.0,199.0,69,1,1813.800000011921,558164.3000000119,9999,bronze,NF,C,556925,556925,555393,556208,555394,557207,556725,556725,557207,120
112,test,1,con,1,m,Wed Aug 28 2024 12:07:58 GMT-0500 (Central Daylight Time),562160.8000000119,cobalt,1100,I,m,m,None,515,315.0,200.0,92,1,2164.0,559996.8000000119,9999,cobalt,NF,C,559068,559068,557226,558341,557227,559390,558857,558857,559390,121
113,test,1,con,1,m,Wed Aug 28 2024 12:07:58 GMT-0500 (Central Daylight Time),564376.8000000119,gold,1100,I,m,m,None,549,350.0,199.0,100,1,2197.0,562179.8000000119,9999,gold,NF,C,561240,561240,559409,560523,559410,561606,561040,561040,561606,122
114,test,1,con,1,m,Wed Aug 28 2024 12:07:58 GMT-0500 (Central Daylight Time),566676.1000000238,iron,900,I,m,m,None,837,638.0,199.0,106,1,2280.199999988079,564395.9000000358,9999,iron,NF,C,563256,563256,561625,562539,561626,563905,563056,563056,563905,123
115,test,1,con,1,m,Wed Aug 28 2024 12:07:58 GMT-0500 (Central Daylight Time),568992.0,silver,1000,I,m,m,None,759,560.0,199.0,83,1,2297.5,566694.5,9999,silver,NF,C,565655,565655,563924,564938,563924,566221,565455,565455,566221,124
116,test,1,con,1,z,Wed Aug 28 2024 12:07:58 GMT-0500 (Central Daylight Time),570874.1000000238,banana,800,I,z,z,None,530,331.0,199.0,1,1,1865.6000000238419,569008.5,9999,banana,NF,C,567771,567771,566237,567054,566238,568103,567571,567571,568103,125
117,test,1,con,1,z,Wed Aug 28 2024 12:07:58 GMT-0500 (Central Daylight Time),572907.4000000358,lime,900,I,z,z,None,590,390.0,200.0,34,1,2021.7000000476837,570885.6999999881,9999,lime,NF,C,569737,569737,568115,569020,568115,570136,569536,569536,570136,126
118,test,1,inc,1,m,Wed Aug 28 2024 12:07:58 GMT-0500 (Central Daylight Time),575023.3000000119,kiwi,1000,I,m,m,None,561,361.0,200.0,127,1,2098.399999976158,572924.9000000358,9999,lead,NF,C,571886,571886,570154,571170,570155,572252,571686,571686,572252,127
119,test,1,inc,1,z,Wed Aug 28 2024 12:07:58 GMT-0500 (Central Daylight Time),577355.9000000358,silver,1000,I,z,z,None,771,572.0,199.0,15,1,2314.800000011921,575041.1000000238,9999,cherry,NF,C,574002,574002,572270,573286,572271,574585,573803,573803,574585,128
