acc_sum,block,block_c,condition,correct,correct_response,datetime,endtime,flanker,jitter,project,response,response_test_buffer_response,response_test_target_response,response_time,response_time_test_buffer_response,response_time_test_target_response,row_sel,session_number,start_end,starttime,subject_id,target,task,task_vers,time_test_buffer,time_test_buffer_response,time_test_constants,time_test_flanker,time_test_jitter,time_test_logger,time_test_target,time_test_target_response,time_test_variables,trial
1,prac,1,con,1,m,Thu Jan 09 2025 12:39:02 GMT-0600 (Central Standard Time),166104.5,bronze,800,I,m,,,932,,,9,1,3044.39999999851,163060.1000000015,8008,bronze,NF,C,,,,,,,,,,1
2,prac,1,con,1,m,Thu Jan 09 2025 12:39:02 GMT-0600 (Central Standard Time),168703.79999999702,zinc,1000,I,m,,,283,,,15,1,2592.0,166111.79999999702,8008,zinc,NF,C,,,,,,,,,,2
3,prac,1,con,1,z,Thu Jan 09 2025 12:39:02 GMT-0600 (Central Standard Time),171536.19999999553,banana,800,I,z,,,724,,,1,1,2828.0999999940395,168708.1000000015,8008,banana,NF,C,,,,,,,,,,3
4,prac,1,con,1,m,Thu Jan 09 2025 12:39:02 GMT-0600 (Central Standard Time),174485.1000000015,gold,800,I,m,,,836,,,13,1,2944.60000000149,171540.5,8008,gold,NF,C,,,,,,,,,,4
5,prac,1,con,1,m,Thu Jan 09 2025 12:39:02 GMT-0600 (Central Standard Time),177534.19999999553,silver,1000,I,m,,,735,,,11,1,3044.39999999851,174489.79999999702,8008,silver,NF,C,,,,,,,,,,5
6,prac,1,inc,1,m,Thu Jan 09 2025 12:39:02 GMT-0600 (Central Standard Time),180699.8999999985,plum,1100,I,m,,,754,,,16,1,3161.2999999970198,177538.6000000015,8008,lead,NF,C,,,,,,,,,,6
7,prac,1,inc,1,m,Thu Jan 09 2025 12:39:02 GMT-0600 (Central Standard Time),183848.8999999985,raisin,1100,I,m,,,748,,,12,1,3144.7999999970198,180704.1000000015,8008,cobalt,NF,C,,,,,,,,,,7
8,prac,1,inc,1,m,Thu Jan 09 2025 12:39:02 GMT-0600 (Central Standard Time),186798.0,cherry,900,I,m,,,743,,,10,1,2945.2000000029802,183852.79999999702,8008,copper,NF,C,,,,,,,,,,8
9,prac,1,inc,1,z,Thu Jan 09 2025 12:39:02 GMT-0600 (Central Standard Time),190080.1000000015,lead,1100,I,z,,,866,,,8,1,3278.0,186802.1000000015,8008,plum,NF,C,,,,,,,,,,9
10,prac,1,inc,1,m,Thu Jan 09 2025 12:39:02 GMT-0600 (Central Standard Time),192947.0,pear,900,I,m,,,655,,,14,1,2862.39999999851,190084.6000000015,8008,iron,NF,C,,,,,,,,,,10
11,prac,1,inc,1,z,Thu Jan 09 2025 12:39:02 GMT-0600 (Central Standard Time),195878.5,iron,900,I,z,,,718,,,6,1,2926.5,192952.0,8008,pear,NF,C,,,,,,,,,,11
12,prac,1,inc,1,z,Thu Jan 09 2025 12:39:02 GMT-0600 (Central Standard Time),198977.5,copper,900,I,z,,,898,,,2,1,3094.8000000044703,195882.69999999553,8008,cherry,NF,C,,,,,,,,,,12
13,prac,1,con,1,z,Thu Jan 09 2025 12:39:02 GMT-0600 (Central Standard Time),201859.8999999985,lime,800,I,z,,,779,,,5,1,2878.39999999851,198981.5,8008,lime,NF,C,,,,,,,,,,13
14,prac,1,con,1,z,Thu Jan 09 2025 12:39:02 GMT-0600 (Central Standard Time),205009.0,orange,1000,I,z,,,848,,,3,1,3145.2000000029802,201863.79999999702,8008,orange,NF,C,,,,,,,,,,14
15,prac,1,inc,1,z,Thu Jan 09 2025 12:39:02 GMT-0600 (Central Standard Time),208307.8999999985,cobalt,1100,I,z,,,887,,,4,1,3294.7999999970198,205013.1000000015,8008,raisin,NF,C,,,,,,,,,,15
16,prac,1,con,1,z,Thu Jan 09 2025 12:39:02 GMT-0600 (Central Standard Time),211423.5,kiwi,1000,I,z,,,799,,,7,1,3111.60000000149,208311.8999999985,8008,kiwi,NF,C,,,,,,,,,,16
1,test,1,inc,1,z,Thu Jan 09 2025 12:39:02 GMT-0600 (Central Standard Time),236249.0,silver,1000,I,z,z,None,767,568.0,199.0,23,1,2312.39999999851,233936.6000000015,8008,orange,NF,C,218615,218615,216886,217899,216887,219198,218416,218416,219198,1
2,test,1,con,1,z,Thu Jan 09 2025 12:39:02 GMT-0600 (Central Standard Time),238331.8999999985,banana,800,I,z,z,None,738,539.0,199.0,1,1,2078.39999999851,236253.5,8008,banana,NF,C,220732,220732,219203,220015,219204,221281,220532,220532,221281,2
3,test,1,con,1,m,Thu Jan 09 2025 12:39:02 GMT-0600 (Central Standard Time),240264.3999999985,lead,800,I,m,m,None,592,392.0,200.0,121,1,1928.2000000029802,238336.19999999553,8008,lead,NF,C,222815,222815,221285,222098,221286,223213,222615,222615,223213,3
4,test,1,inc,1,z,Thu Jan 09 2025 12:39:02 GMT-0600 (Central Standard Time),242613.6000000015,lead,1100,I,z,z,None,712,513.0,199.0,40,1,2344.9000000059605,240268.69999999553,8008,lime,NF,C,225046,225046,223218,224331,223219,225563,224847,224847,225563,4
5,test,1,inc,1,m,Thu Jan 09 2025 12:39:02 GMT-0600 (Central Standard Time),244596.29999999702,lime,800,I,m,m,None,646,447.0,199.0,125,1,1978.6999999955297,242617.6000000015,8008,lead,NF,C,227096,227096,225567,226380,225568,227545,226897,226897,227545,5
6,test,1,con,1,m,Thu Jan 09 2025 12:39:02 GMT-0600 (Central Standard Time),246762.3999999985,bronze,800,I,m,m,None,832,633.0,199.0,65,1,2162.2000000029802,244600.19999999553,8008,bronze,NF,C,229078,229078,227549,228363,227551,229711,228879,228879,229711,6
7,test,1,con,1,m,Thu Jan 09 2025 12:39:02 GMT-0600 (Central Standard Time),248961.69999999553,iron,900,I,m,m,None,747,533.0,214.0,106,1,2195.7999999970198,246765.8999999985,8008,iron,NF,C,231361,231362,229715,230629,229716,231911,231147,231147,231911,7
8,test,1,con,1,z,Thu Jan 09 2025 12:39:02 GMT-0600 (Central Standard Time),251112.19999999553,orange,900,I,z,z,None,710,511.0,199.0,18,1,2146.5,248965.69999999553,8008,orange,NF,C,233544,233544,231915,232828,231916,234061,233345,233345,234061,8
9,test,1,inc,1,z,Thu Jan 09 2025 12:39:02 GMT-0600 (Central Standard Time),253428.0,iron,900,I,z,z,None,801,599.0,202.0,54,1,2311.60000000149,251116.3999999985,8008,kiwi,NF,C,235776,235776,234065,234977,234067,236377,235574,235574,236377,9
10,test,1,inc,1,m,Thu Jan 09 2025 12:39:02 GMT-0600 (Central Standard Time),255809.5,raisin,1100,I,m,m,None,741,542.0,199.0,80,1,2377.5,253432.0,8008,copper,NF,C,238209,238209,236381,237493,236383,238759,238010,238010,238758,10
11,test,1,con,1,z,Thu Jan 09 2025 12:39:02 GMT-0600 (Central Standard Time),258008.8999999985,banana,900,I,z,z,None,758,559.0,199.0,2,1,2195.10000000149,255813.79999999702,8008,banana,NF,C,240392,240392,238763,239676,238764,240958,240192,240192,240958,11
12,test,1,inc,1,m,Thu Jan 09 2025 12:39:02 GMT-0600 (Central Standard Time),260441.69999999553,plum,1100,I,m,m,None,783,584.0,199.0,120,1,2428.6999999955297,258013.0,8008,zinc,NF,C,242791,242791,240962,242075,240963,243391,242592,242592,243391,12
13,test,1,inc,1,z,Thu Jan 09 2025 12:39:02 GMT-0600 (Central Standard Time),262591.0,iron,900,I,z,z,None,702,503.0,199.0,46,1,2144.8000000044703,260446.19999999553,8008,pear,NF,C,245024,245024,243395,244308,243397,245540,244824,244824,245540,13
14,test,1,con,1,m,Thu Jan 09 2025 12:39:02 GMT-0600 (Central Standard Time),265040.299999997,bronze,1100,I,m,m,None,809,610.0,199.0,68,1,2445.2999999970198,262595.0,8008,bronze,NF,C,247373,247373,245544,246657,245545,247989,247174,247174,247989,14
15,test,1,inc,1,z,Thu Jan 09 2025 12:39:02 GMT-0600 (Central Standard Time),267339.1000000015,silver,1000,I,z,z,None,764,565.0,199.0,15,1,2294.8000000044703,265044.299999997,8008,cherry,NF,C,249722,249722,247993,249006,247995,250288,249523,249523,250288,15
16,test,1,con,1,z,Thu Jan 09 2025 12:39:02 GMT-0600 (Central Standard Time),269788.3999999985,plum,1100,I,z,z,None,812,613.0,199.0,60,1,2445.7000000029802,267342.69999999553,8008,plum,NF,C,252122,252122,250292,251407,250293,252737,251922,251922,252737,16
17,test,1,con,1,z,Thu Jan 09 2025 12:39:02 GMT-0600 (Central Standard Time),272104.3999999985,plum,900,I,z,z,None,867,652.0,215.0,58,1,2311.89999999851,269792.5,8008,plum,NF,C,254387,254387,252742,253655,252743,255054,254172,254172,255053,17
18,test,1,inc,1,m,Thu Jan 09 2025 12:39:02 GMT-0600 (Central Standard Time),274370.19999999553,orange,1000,I,m,m,None,731,516.0,215.0,79,1,2261.89999999851,272108.299999997,8008,copper,NF,C,256803,256803,255057,256071,255059,257319,256588,256588,257319,18
19,test,1,inc,1,m,Thu Jan 09 2025 12:39:02 GMT-0600 (Central Standard Time),276986.299999997,plum,1100,I,m,m,None,849,650.0,199.0,104,1,2612.39999999851,274373.8999999985,8008,gold,NF,C,259285,259285,257323,258437,257324,259935,259086,259086,259935,19
20,test,1,inc,1,z,Thu Jan 09 2025 12:39:02 GMT-0600 (Central Standard Time),279085.5,bronze,800,I,z,z,None,762,563.0,199.0,5,1,2095.39999999851,276990.1000000015,8008,banana,NF,C,261468,261468,259939,260753,259941,262035,261269,261269,262034,20
21,test,1,inc,1,m,Thu Jan 09 2025 12:39:02 GMT-0600 (Central Standard Time),281601.69999999553,raisin,1100,I,m,m,None,866,651.0,215.0,72,1,2512.5999999940395,279089.1000000015,8008,bronze,NF,C,263884,263884,262038,263152,262040,264551,263669,263669,264551,21
22,test,1,con,1,z,Thu Jan 09 2025 12:39:02 GMT-0600 (Central Standard Time),284000.799999997,banana,1100,I,z,z,None,759,560.0,199.0,4,1,2393.60000000149,281607.19999999553,8008,banana,NF,C,266383,266383,264556,265668,264558,266950,266184,266184,266950,22
23,test,1,inc,1,z,Thu Jan 09 2025 12:39:02 GMT-0600 (Central Standard Time),286333.299999997,cobalt,1100,I,z,z,None,687,488.0,199.0,8,1,2327.89999999851,284005.3999999985,8008,banana,NF,C,268783,268783,266954,268067,266956,269282,268584,268584,269282,23
24,test,1,inc,1,m,Thu Jan 09 2025 12:39:02 GMT-0600 (Central Standard Time),288299.19999999553,lime,800,I,m,m,None,622,423.0,199.0,117,1,1961.7999999970198,286337.3999999985,8008,zinc,NF,C,270815,270816,269286,270100,269288,271248,270616,270616,271248,24
25,test,1,inc,1,z,Thu Jan 09 2025 12:39:02 GMT-0600 (Central Standard Time),290582.0,bronze,800,I,z,z,None,936,721.0,215.0,29,1,2279.0,288303.0,8008,raisin,NF,C,272798,272798,271252,272066,271253,273531,272583,272583,273531,25
26,test,1,inc,1,m,Thu Jan 09 2025 12:39:02 GMT-0600 (Central Standard Time),292814.69999999553,cherry,900,I,m,m,None,794,595.0,199.0,86,1,2228.5,290586.19999999553,8008,silver,NF,C,275164,275164,273535,274448,273537,275764,274965,274965,275764,26
27,test,1,inc,1,m,Thu Jan 09 2025 12:39:02 GMT-0600 (Central Standard Time),295080.6000000015,banana,800,I,m,m,None,916,701.0,215.0,93,1,2261.8000000044703,292818.799999997,8008,cobalt,NF,C,277314,277314,275768,276581,275769,278030,277098,277098,278030,27
28,test,1,inc,1,m,Thu Jan 09 2025 12:39:02 GMT-0600 (Central Standard Time),297296.6000000015,pear,900,I,m,m,None,775,576.0,199.0,102,1,2212.0,295084.6000000015,8008,gold,NF,C,279663,279663,278034,278947,278035,280246,279464,279464,280246,28
29,test,1,con,1,m,Thu Jan 09 2025 12:39:02 GMT-0600 (Central Standard Time),299822.6000000015,iron,800,I,m,m,None,1190,975.0,215.0,105,1,2522.2000000029802,297300.3999999985,8008,iron,NF,C,281795,281796,280249,281063,280251,282772,281580,281580,282772,29
30,test,1,con,1,z,Thu Jan 09 2025 12:39:02 GMT-0600 (Central Standard Time),302061.69999999553,lime,1100,I,z,z,None,603,388.0,215.0,36,1,2235.1999999955297,299826.5,8008,lime,NF,C,284611,284611,282776,283878,282777,285011,284396,284396,285011,30
31,test,1,con,1,z,Thu Jan 09 2025 12:39:02 GMT-0600 (Central Standard Time),304210.799999997,cherry,1000,I,z,z,None,614,399.0,215.0,11,1,2145.39999999851,302065.3999999985,8008,cherry,NF,C,286760,286760,285014,286028,285016,287160,286545,286545,287160,31
32,test,1,con,1,z,Thu Jan 09 2025 12:39:02 GMT-0600 (Central Standard Time),306093.69999999553,kiwi,800,I,z,z,None,537,338.0,199.0,49,1,1879.0999999940395,304214.6000000015,8008,kiwi,NF,C,288693,288693,287164,287977,287165,289043,288494,288494,289043,32
33,test,1,inc,1,z,Thu Jan 09 2025 12:39:02 GMT-0600 (Central Standard Time),308109.799999997,gold,800,I,z,z,None,670,470.0,200.0,37,1,2012.3999999985099,306097.3999999985,8008,lime,NF,C,290577,290577,289046,289860,289048,291059,290377,290377,291059,33
34,test,1,inc,1,z,Thu Jan 09 2025 12:39:02 GMT-0600 (Central Standard Time),310342.1000000015,cobalt,1100,I,z,z,None,586,387.0,199.0,32,1,2228.5,308113.6000000015,8008,raisin,NF,C,292892,292892,291063,292176,291064,293291,292693,292693,293291,34
35,test,1,con,1,z,Thu Jan 09 2025 12:39:02 GMT-0600 (Central Standard Time),312341.8999999985,raisin,900,I,z,z,None,559,345.0,214.0,26,1,1996.1000000014901,310345.799999997,8008,raisin,NF,C,294941,294942,293295,294209,293296,295291,294727,294727,295291,35
36,test,1,con,1,z,Thu Jan 09 2025 12:39:02 GMT-0600 (Central Standard Time),314258.1000000015,orange,800,I,z,z,None,566,367.0,199.0,17,1,1912.3000000044703,312345.799999997,8008,orange,NF,C,296824,296824,295295,296108,295296,297207,296625,296625,297207,36
37,test,1,con,1,m,Thu Jan 09 2025 12:39:02 GMT-0600 (Central Standard Time),316307.19999999553,cobalt,900,I,m,m,None,614,415.0,199.0,90,1,2045.3999999985099,314261.799999997,8008,cobalt,NF,C,298840,298840,297211,298124,297212,299256,298641,298641,299256,37
38,test,1,inc,1,z,Thu Jan 09 2025 12:39:02 GMT-0600 (Central Standard Time),318339.8999999985,iron,900,I,z,z,None,597,398.0,199.0,38,1,2029.0,316310.8999999985,8008,lime,NF,C,300889,300889,299260,300174,299261,301289,300690,300690,301289,38
39,test,1,inc,1,m,Thu Jan 09 2025 12:39:02 GMT-0600 (Central Standard Time),320406.0,pear,900,I,m,m,None,620,421.0,199.0,126,1,2062.5,318343.5,8008,lead,NF,C,302922,302922,301293,302206,301294,303355,302723,302723,303355,39
40,test,1,inc,1,z,Thu Jan 09 2025 12:39:02 GMT-0600 (Central Standard Time),322688.6000000015,cobalt,1100,I,z,z,None,642,443.0,199.0,16,1,2278.5,320410.1000000015,8008,cherry,NF,C,305188,305188,303359,304472,303361,305638,304989,304989,305638,40
41,test,1,con,1,m,Thu Jan 09 2025 12:39:02 GMT-0600 (Central Standard Time),324787.799999997,silver,1000,I,m,m,None,563,348.0,215.0,83,1,2095.5,322692.299999997,8008,silver,NF,C,307387,307387,305641,306655,305643,307737,307172,307172,307737,41
42,test,1,con,1,m,Thu Jan 09 2025 12:39:02 GMT-0600 (Central Standard Time),326887.1000000015,gold,900,I,m,m,None,660,461.0,199.0,98,1,2095.5,324791.6000000015,8008,gold,NF,C,309370,309370,307741,308654,307742,309836,309171,309171,309836,42
43,test,1,inc,1,m,Thu Jan 09 2025 12:39:02 GMT-0600 (Central Standard Time),329103.1000000015,kiwi,1000,I,m,m,None,677,478.0,199.0,111,1,2212.60000000149,326890.5,8008,iron,NF,C,311569,311569,309840,310853,309841,312052,311370,311370,312052,43
44,test,1,con,1,z,Thu Jan 09 2025 12:39:02 GMT-0600 (Central Standard Time),331069.299999997,banana,1000,I,z,z,None,421,222.0,199.0,3,1,1962.5,329106.799999997,8008,banana,NF,C,313785,313785,312056,313069,312057,314018,313586,313586,314018,44
45,test,1,inc,1,z,Thu Jan 09 2025 12:39:02 GMT-0600 (Central Standard Time),333052.0,silver,1000,I,z,z,None,447,248.0,199.0,7,1,1978.8999999985099,331073.1000000015,8008,banana,NF,C,315751,315751,314022,315035,314023,316001,315552,315552,316001,45
46,test,1,con,1,m,Thu Jan 09 2025 12:39:02 GMT-0600 (Central Standard Time),335168.0,gold,1000,I,m,m,None,568,369.0,199.0,99,1,2112.10000000149,333055.8999999985,8008,gold,NF,C,317734,317734,316005,317018,316006,318117,317535,317535,318117,46
47,test,1,inc,1,z,Thu Jan 09 2025 12:39:02 GMT-0600 (Central Standard Time),337417.1000000015,lead,1100,I,z,z,None,608,409.0,199.0,48,1,2245.10000000149,335172.0,8008,pear,NF,C,319950,319950,318121,319234,318122,320366,319751,319751,320366,47
48,test,1,con,1,m,Thu Jan 09 2025 12:39:02 GMT-0600 (Central Standard Time),339333.19999999553,silver,800,I,m,m,None,570,355.0,215.0,81,1,1912.1999999955297,337421.0,8008,silver,NF,C,321916,321916,320370,321184,320371,322282,321701,321701,322282,48
49,test,1,con,1,m,Thu Jan 09 2025 12:39:02 GMT-0600 (Central Standard Time),341299.19999999553,copper,800,I,m,m,None,630,414.0,216.0,73,1,1962.0999999940395,339337.1000000015,8008,copper,NF,C,323833,323833,322286,323100,322288,324248,323617,323617,324248,49
50,test,1,inc,1,z,Thu Jan 09 2025 12:39:02 GMT-0600 (Central Standard Time),343332.1000000015,copper,900,I,z,z,None,588,373.0,215.0,6,1,2029.4000000059605,341302.69999999553,8008,banana,NF,C,325898,325898,324252,325166,324253,326281,325682,325683,326281,50
51,test,1,con,1,m,Thu Jan 09 2025 12:39:02 GMT-0600 (Central Standard Time),345381.3999999985,zinc,800,I,m,m,None,704,505.0,199.0,113,1,2045.7000000029802,343335.69999999553,8008,zinc,NF,C,327814,327814,326285,327098,326286,328331,327615,327615,328330,51
52,test,1,con,1,z,Thu Jan 09 2025 12:39:02 GMT-0600 (Central Standard Time),347497.5,orange,1000,I,z,z,None,580,376.0,204.0,19,1,2112.39999999851,345385.1000000015,8008,orange,NF,C,330063,330063,328334,329348,328336,330447,329859,329859,330447,52
53,test,1,inc,1,z,Thu Jan 09 2025 12:39:02 GMT-0600 (Central Standard Time),349613.6000000015,copper,900,I,z,z,None,678,479.0,199.0,14,1,2112.5,347501.1000000015,8008,cherry,NF,C,332080,332080,330450,331365,330452,332563,331880,331880,332563,53
54,test,1,inc,1,m,Thu Jan 09 2025 12:39:02 GMT-0600 (Central Standard Time),351563.1000000015,banana,800,I,m,m,None,606,407.0,199.0,77,1,1945.9000000059605,349617.19999999553,8008,copper,NF,C,334096,334096,332566,333380,332568,334512,333896,333896,334512,54
55,test,1,con,1,z,Thu Jan 09 2025 12:39:02 GMT-0600 (Central Standard Time),353478.799999997,raisin,800,I,z,z,None,577,378.0,199.0,25,1,1911.6000000014901,351567.19999999553,8008,raisin,NF,C,336045,336045,334516,335329,334517,336428,335846,335846,336428,55
56,test,1,con,1,m,Thu Jan 09 2025 12:39:02 GMT-0600 (Central Standard Time),355661.5,silver,1100,I,m,m,None,545,346.0,199.0,84,1,2178.89999999851,353482.6000000015,8008,silver,NF,C,338261,338261,336432,337545,336433,338611,338062,338062,338611,56
57,test,1,con,1,z,Thu Jan 09 2025 12:39:02 GMT-0600 (Central Standard Time),357827.5,pear,1000,I,z,z,None,630,415.0,215.0,43,1,2162.2000000029802,355665.299999997,8008,pear,NF,C,340360,340360,338614,339628,338616,340777,340145,340145,340777,57
58,test,1,inc,1,m,Thu Jan 09 2025 12:39:02 GMT-0600 (Central Standard Time),359893.6000000015,pear,900,I,m,m,None,628,413.0,215.0,110,1,2062.60000000149,357831.0,8008,iron,NF,C,342426,342426,340780,341694,340781,342843,342211,342211,342843,58
59,test,1,con,1,m,Thu Jan 09 2025 12:39:02 GMT-0600 (Central Standard Time),362009.6000000015,iron,1000,I,m,m,None,566,367.0,199.0,107,1,2112.3000000044703,359897.299999997,8008,iron,NF,C,344576,344576,342846,343860,342848,344959,344377,344377,344959,59
60,test,1,inc,1,m,Thu Jan 09 2025 12:39:02 GMT-0600 (Central Standard Time),364225.799999997,orange,1000,I,m,m,None,666,467.0,199.0,87,1,2212.60000000149,362013.19999999553,8008,silver,NF,C,346692,346692,344962,345976,344964,347175,346492,346492,347175,60
61,test,1,con,1,z,Thu Jan 09 2025 12:39:02 GMT-0600 (Central Standard Time),366324.69999999553,pear,900,I,z,z,None,661,447.0,214.0,42,1,2095.2999999970198,364229.3999999985,8008,pear,NF,C,348824,348824,347178,348092,347180,349274,348610,348610,349274,61
62,test,1,inc,1,z,Thu Jan 09 2025 12:39:02 GMT-0600 (Central Standard Time),368541.0,zinc,1000,I,z,z,None,671,472.0,199.0,39,1,2212.3000000044703,366328.69999999553,8008,lime,NF,C,351007,351007,349278,350291,349279,351490,350808,350808,351490,62
63,test,1,con,1,m,Thu Jan 09 2025 12:39:02 GMT-0600 (Central Standard Time),370623.3999999985,gold,800,I,m,m,None,734,519.0,215.0,97,1,2078.7999999970198,368544.6000000015,8008,gold,NF,C,353040,353040,351494,352307,351495,353572,352824,352824,353572,63
64,test,1,inc,1,m,Thu Jan 09 2025 12:39:02 GMT-0600 (Central Standard Time),372939.3999999985,plum,1100,I,m,m,None,672,473.0,199.0,128,1,2312.2999999970198,370627.1000000015,8008,lead,NF,C,355406,355406,353576,354690,353577,355888,355206,355206,355888,64
65,test,1,con,1,z,Thu Jan 09 2025 12:39:02 GMT-0600 (Central Standard Time),374788.8999999985,cherry,800,I,z,z,None,512,297.0,215.0,9,1,1845.7000000029802,372943.19999999553,8008,cherry,NF,C,357438,357438,355892,356705,355894,357738,357223,357223,357738,65
66,test,1,con,1,m,Thu Jan 09 2025 12:39:02 GMT-0600 (Central Standard Time),376871.799999997,cobalt,1000,I,m,m,None,535,336.0,199.0,91,1,2079.1999999955297,374792.6000000015,8008,cobalt,NF,C,359471,359471,357742,358755,357743,359821,359272,359272,359821,66
67,test,1,con,1,m,Thu Jan 09 2025 12:39:02 GMT-0600 (Central Standard Time),378937.69999999553,lead,900,I,m,m,None,624,409.0,215.0,122,1,2062.0,376875.69999999553,8008,lead,NF,C,361470,361470,359825,360738,359826,361887,361255,361255,361887,67
68,test,1,con,1,z,Thu Jan 09 2025 12:39:02 GMT-0600 (Central Standard Time),381186.8999999985,kiwi,1100,I,z,z,None,606,391.0,215.0,52,1,2245.60000000149,378941.299999997,8008,kiwi,NF,C,363736,363736,361890,363004,361892,364136,363521,363521,364136,68
69,test,1,con,1,m,Thu Jan 09 2025 12:39:02 GMT-0600 (Central Standard Time),383469.3999999985,gold,1100,I,m,m,None,637,438.0,199.0,100,1,2278.5,381190.8999999985,8008,gold,NF,C,365969,365969,364140,365253,364141,366418,365770,365770,366418,69
70,test,1,con,1,m,Thu Jan 09 2025 12:39:02 GMT-0600 (Central Standard Time),385752.299999997,zinc,900,I,m,m,None,834,635.0,199.0,114,1,2279.39999999851,383472.8999999985,8008,zinc,NF,C,368052,368052,366422,367336,366423,368701,367852,367852,368701,70
71,test,1,inc,1,z,Thu Jan 09 2025 12:39:02 GMT-0600 (Central Standard Time),387635.0,bronze,800,I,z,z,None,540,341.0,199.0,21,1,1878.8999999985099,385756.1000000015,8008,orange,NF,C,370234,370234,368705,369518,368706,370584,370035,370035,370584,71
72,test,1,inc,1,z,Thu Jan 09 2025 12:39:02 GMT-0600 (Central Standard Time),389867.3999999985,lead,1100,I,z,z,None,589,390.0,199.0,64,1,2228.7000000029802,387638.69999999553,8008,plum,NF,C,372417,372417,370588,371701,370589,372817,372218,372218,372816,72
73,test,1,inc,1,m,Thu Jan 09 2025 12:39:02 GMT-0600 (Central Standard Time),392000.19999999553,kiwi,1000,I,m,m,None,592,377.0,215.0,127,1,2128.89999999851,389871.299999997,8008,lead,NF,C,374566,374566,372820,373834,372822,374949,374351,374351,374949,73
74,test,1,inc,1,z,Thu Jan 09 2025 12:39:02 GMT-0600 (Central Standard Time),394132.8999999985,zinc,1000,I,z,z,None,595,303.0,292.0,55,1,2129.10000000149,392003.799999997,8008,kiwi,NF,C,376776,376776,374953,375966,374954,377082,376483,376483,377082,74
75,test,1,con,1,m,Thu Jan 09 2025 12:39:02 GMT-0600 (Central Standard Time),396532.0,copper,1100,I,m,m,None,754,539.0,215.0,76,1,2395.0,394137.0,8008,copper,NF,C,378932,378932,377086,378199,377087,379481,378716,378716,379481,75
76,test,1,con,1,m,Thu Jan 09 2025 12:39:02 GMT-0600 (Central Standard Time),398598.1000000015,cobalt,800,I,m,m,None,720,521.0,199.0,89,1,2062.7000000029802,396535.3999999985,8008,cobalt,NF,C,381014,381014,379484,380298,379486,381547,380815,380815,381547,76
77,test,1,con,1,z,Thu Jan 09 2025 12:39:02 GMT-0600 (Central Standard Time),400480.8999999985,pear,800,I,z,z,None,534,335.0,199.0,41,1,1878.7999999970198,398602.1000000015,8008,pear,NF,C,383080,383080,381551,382364,381552,383430,382881,382881,383430,77
78,test,1,inc,1,m,Thu Jan 09 2025 12:39:02 GMT-0600 (Central Standard Time),402463.6000000015,lime,800,I,m,m,None,643,444.0,199.0,101,1,1979.0,400484.6000000015,8008,gold,NF,C,384963,384963,383434,384247,383435,385413,384764,384764,385413,78
79,test,1,con,1,m,Thu Jan 09 2025 12:39:02 GMT-0600 (Central Standard Time),404612.8999999985,lead,1000,I,m,m,None,604,389.0,215.0,123,1,2145.60000000149,402467.299999997,8008,lead,NF,C,387162,387162,385416,386430,385418,387562,386947,386947,387562,79
80,test,1,inc,1,z,Thu Jan 09 2025 12:39:02 GMT-0600 (Central Standard Time),406662.19999999553,copper,900,I,z,z,None,611,412.0,199.0,30,1,2045.6999999955297,404616.5,8008,raisin,NF,C,389195,389195,387566,388479,387567,389611,388996,388996,389611,80
81,test,1,con,1,z,Thu Jan 09 2025 12:39:02 GMT-0600 (Central Standard Time),408728.19999999553,kiwi,900,I,z,z,None,618,419.0,199.0,50,1,2062.39999999851,406665.799999997,8008,kiwi,NF,C,391244,391244,389615,390528,389616,391677,391045,391045,391677,81
82,test,1,inc,1,z,Thu Jan 09 2025 12:39:02 GMT-0600 (Central Standard Time),410710.8999999985,gold,800,I,z,z,None,635,420.0,215.0,53,1,1978.7999999970198,408732.1000000015,8008,kiwi,NF,C,393227,393227,391681,392495,391682,393660,393011,393012,393660,82
83,test,1,inc,1,m,Thu Jan 09 2025 12:39:02 GMT-0600 (Central Standard Time),412776.8999999985,cherry,900,I,m,m,None,625,426.0,199.0,94,1,2062.0,410714.8999999985,8008,cobalt,NF,C,395293,395293,393664,394577,393665,395726,395094,395094,395726,83
84,test,1,con,1,m,Thu Jan 09 2025 12:39:02 GMT-0600 (Central Standard Time),414959.69999999553,copper,1000,I,m,m,None,635,436.0,199.0,75,1,2179.2999999970198,412780.3999999985,8008,copper,NF,C,397459,397459,395729,396743,395731,397909,397260,397260,397909,84
85,test,1,inc,1,m,Thu Jan 09 2025 12:39:02 GMT-0600 (Central Standard Time),416925.6000000015,lime,800,I,m,m,None,620,405.0,215.0,109,1,1962.0,414963.6000000015,8008,iron,NF,C,399458,399458,397913,398726,397914,399875,399243,399243,399875,85
86,test,1,con,1,m,Thu Jan 09 2025 12:39:02 GMT-0600 (Central Standard Time),419075.1000000015,zinc,1100,I,m,m,None,506,307.0,199.0,116,1,2146.0,416929.1000000015,8008,zinc,NF,C,401708,401708,399878,400992,399879,402024,401508,401508,402024,86
87,test,1,inc,1,z,Thu Jan 09 2025 12:39:02 GMT-0600 (Central Standard Time),421224.299999997,lead,1100,I,z,z,None,501,302.0,199.0,56,1,2145.60000000149,419078.69999999553,8008,kiwi,NF,C,403857,403857,402028,403141,402029,404173,403658,403658,404173,87
88,test,1,con,1,z,Thu Jan 09 2025 12:39:02 GMT-0600 (Central Standard Time),423357.0,pear,1100,I,z,z,None,494,280.0,214.0,44,1,2128.60000000149,421228.3999999985,8008,pear,NF,C,406023,406023,404177,405291,404179,406306,405809,405809,406306,88
89,test,1,con,1,z,Thu Jan 09 2025 12:39:02 GMT-0600 (Central Standard Time),425489.799999997,lime,1000,I,z,z,None,583,384.0,199.0,35,1,2129.10000000149,423360.69999999553,8008,lime,NF,C,408039,408039,406310,407323,406311,408439,407840,407840,408439,89
90,test,1,con,1,z,Thu Jan 09 2025 12:39:02 GMT-0600 (Central Standard Time),427472.3999999985,lime,900,I,z,z,None,533,318.0,215.0,34,1,1979.0,425493.3999999985,8008,lime,NF,C,410089,410089,408442,409356,408444,410421,409873,409873,410421,90
91,test,1,inc,1,z,Thu Jan 09 2025 12:39:02 GMT-0600 (Central Standard Time),429488.299999997,iron,900,I,z,z,None,576,377.0,199.0,62,1,2012.2999999970198,427476.0,8008,plum,NF,C,412054,412054,410425,411339,410426,412437,411855,411855,412437,91
92,test,1,inc,1,m,Thu Jan 09 2025 12:39:02 GMT-0600 (Central Standard Time),431620.8999999985,kiwi,1000,I,m,m,None,595,380.0,215.0,119,1,2128.7000000029802,429492.19999999553,8008,zinc,NF,C,414187,414187,412441,413456,412443,414570,413972,413972,414570,92
93,test,1,con,1,m,Thu Jan 09 2025 12:39:02 GMT-0600 (Central Standard Time),433920.299999997,iron,1100,I,m,m,None,651,436.0,215.0,108,1,2295.7999999970198,431624.5,8008,iron,NF,C,416419,416419,414574,415687,414575,416869,416204,416204,416869,93
94,test,1,con,1,m,Thu Jan 09 2025 12:39:02 GMT-0600 (Central Standard Time),436036.299999997,cobalt,1100,I,m,m,None,480,281.0,199.0,92,1,2112.39999999851,433923.8999999985,8008,cobalt,NF,C,418702,418702,416873,417986,416874,418985,418503,418503,418985,94
95,test,1,inc,1,m,Thu Jan 09 2025 12:39:02 GMT-0600 (Central Standard Time),438152.3999999985,kiwi,1000,I,m,m,None,568,369.0,199.0,103,1,2112.2999999970198,436040.1000000015,8008,gold,NF,C,420718,420718,418989,420002,418990,421101,420519,420519,421101,95
96,test,1,inc,1,z,Thu Jan 09 2025 12:39:02 GMT-0600 (Central Standard Time),440351.799999997,zinc,1000,I,z,z,None,660,461.0,199.0,63,1,2195.6999999955297,438156.1000000015,8008,plum,NF,C,422834,422834,421105,422119,421106,423301,422635,422635,423301,96
97,test,1,inc,1,m,Thu Jan 09 2025 12:39:02 GMT-0600 (Central Standard Time),442417.69999999553,pear,900,I,m,m,None,615,400.0,215.0,118,1,2062.2999999970198,440355.3999999985,8008,zinc,NF,C,424951,424951,423304,424218,423306,425367,424735,424735,425367,97
98,test,1,con,1,z,Thu Jan 09 2025 12:39:02 GMT-0600 (Central Standard Time),444518.19999999553,plum,1000,I,z,z,None,562,347.0,215.0,59,1,2096.89999999851,442421.299999997,8008,plum,NF,C,427116,427116,425370,426384,425372,427467,426901,426901,427467,98
99,test,1,con,1,z,Thu Jan 09 2025 12:39:02 GMT-0600 (Central Standard Time),446533.0,plum,800,I,z,z,None,671,472.0,199.0,57,1,2011.2000000029802,444521.799999997,8008,plum,NF,C,428999,428999,427471,428284,427472,429482,428800,428800,429482,99
100,test,1,con,1,m,Thu Jan 09 2025 12:39:02 GMT-0600 (Central Standard Time),448615.69999999553,copper,900,I,m,m,None,635,436.0,199.0,74,1,2079.0999999940395,446536.6000000015,8008,copper,NF,C,431115,431115,429486,430399,429487,431565,430916,430916,431565,100
101,test,1,con,1,m,Thu Jan 09 2025 12:39:02 GMT-0600 (Central Standard Time),451048.1000000015,zinc,1000,I,m,m,None,883,668.0,215.0,115,1,2428.9000000059605,448619.19999999553,8008,zinc,NF,C,433315,433315,431568,432582,431569,433997,433099,433099,433997,101
102,test,1,con,1,m,Thu Jan 09 2025 12:39:02 GMT-0600 (Central Standard Time),453615.3999999985,bronze,1000,I,m,m,None,1027,828.0,199.0,67,1,2563.7000000029802,451051.69999999553,8008,bronze,NF,C,435730,435731,434001,435014,434002,436564,435531,435531,436564,102
103,test,1,inc,1,z,Thu Jan 09 2025 12:39:02 GMT-0600 (Central Standard Time),455530.3999999985,bronze,800,I,z,z,None,582,383.0,199.0,13,1,1911.2000000029802,453619.19999999553,8008,cherry,NF,C,438096,438096,436568,437380,436570,438479,437897,437897,438479,103
104,test,1,inc,1,z,Thu Jan 09 2025 12:39:02 GMT-0600 (Central Standard Time),457646.5,silver,1000,I,z,z,None,578,379.0,199.0,31,1,2112.2000000029802,455534.299999997,8008,raisin,NF,C,440212,440212,438483,439496,438484,440596,440013,440013,440595,104
105,test,1,con,1,z,Thu Jan 09 2025 12:39:02 GMT-0600 (Central Standard Time),459828.799999997,raisin,1100,I,z,z,None,538,339.0,199.0,28,1,2178.6999999955297,457650.1000000015,8008,raisin,NF,C,442428,442428,440599,441712,440601,442778,442229,442229,442778,105
106,test,1,inc,1,z,Thu Jan 09 2025 12:39:02 GMT-0600 (Central Standard Time),462095.0,cobalt,1100,I,z,z,None,627,428.0,199.0,24,1,2262.5,459832.5,8008,orange,NF,C,444611,444611,442782,443896,442783,445044,444412,444412,445044,106
107,test,1,inc,1,z,Thu Jan 09 2025 12:39:02 GMT-0600 (Central Standard Time),463944.19999999553,gold,800,I,z,z,None,509,310.0,199.0,45,1,1845.5,462098.69999999553,8008,pear,NF,C,446577,446577,445048,445861,445049,446893,446378,446378,446893,107
108,test,1,con,1,m,Thu Jan 09 2025 12:39:02 GMT-0600 (Central Standard Time),466060.19999999553,lead,1100,I,m,m,None,472,273.0,199.0,124,1,2112.2999999970198,463947.8999999985,8008,lead,NF,C,448726,448726,446897,448010,446898,449009,448527,448527,449009,108
109,test,1,inc,1,z,Thu Jan 09 2025 12:39:02 GMT-0600 (Central Standard Time),468109.8999999985,zinc,1000,I,z,z,None,504,305.0,199.0,47,1,2046.0,466063.8999999985,8008,pear,NF,C,450742,450742,449013,450027,449014,451059,450543,450543,451059,109
110,test,1,con,1,z,Thu Jan 09 2025 12:39:02 GMT-0600 (Central Standard Time),470159.1000000015,raisin,1000,I,z,z,None,510,311.0,199.0,27,1,2045.4000000059605,468113.69999999553,8008,raisin,NF,C,452792,452792,451063,452076,451064,453108,452592,452592,453108,110
111,test,1,con,1,m,Thu Jan 09 2025 12:39:02 GMT-0600 (Central Standard Time),472158.299999997,bronze,900,I,m,m,None,553,354.0,199.0,66,1,1995.5,470162.799999997,8008,bronze,NF,C,454741,454741,453112,454025,453113,455107,454542,454542,455107,111
112,test,1,con,1,z,Thu Jan 09 2025 12:39:02 GMT-0600 (Central Standard Time),474174.299999997,cherry,900,I,z,z,None,592,378.0,214.0,10,1,2012.6000000014901,472161.69999999553,8008,cherry,NF,C,456740,456741,455111,456024,455112,457123,456526,456526,457123,112
113,test,1,inc,1,m,Thu Jan 09 2025 12:39:02 GMT-0600 (Central Standard Time),476440.299999997,raisin,1100,I,m,m,None,626,427.0,199.0,96,1,2262.2999999970198,474178.0,8008,cobalt,NF,C,458956,458956,457127,458242,457128,459389,458757,458757,459389,113
114,test,1,inc,1,z,Thu Jan 09 2025 12:39:02 GMT-0600 (Central Standard Time),478473.19999999553,gold,800,I,z,z,None,691,492.0,199.0,61,1,2029.1999999955297,476444.0,8008,plum,NF,C,460923,460923,459393,460207,459394,461422,460723,460723,461422,114
115,test,1,con,1,z,Thu Jan 09 2025 12:39:02 GMT-0600 (Central Standard Time),480639.1000000015,kiwi,1000,I,z,z,None,627,428.0,199.0,51,1,2162.3000000044703,478476.799999997,8008,kiwi,NF,C,463155,463155,461426,462439,461427,463588,462956,462956,463588,115
116,test,1,inc,1,m,Thu Jan 09 2025 12:39:02 GMT-0600 (Central Standard Time),482638.299999997,cherry,900,I,m,m,None,561,362.0,199.0,70,1,1995.6000000014901,480642.69999999553,8008,bronze,NF,C,465221,465221,463592,464505,463593,465587,465022,465022,465587,116
117,test,1,con,1,z,Thu Jan 09 2025 12:39:02 GMT-0600 (Central Standard Time),484871.0,orange,1100,I,z,z,None,594,395.0,199.0,20,1,2228.89999999851,482642.1000000015,8008,orange,NF,C,467420,467420,465591,466705,465592,467820,467221,467221,467820,117
118,test,1,inc,1,z,Thu Jan 09 2025 12:39:02 GMT-0600 (Central Standard Time),486903.799999997,copper,900,I,z,z,None,593,394.0,199.0,22,1,2028.8999999985099,484874.8999999985,8008,orange,NF,C,469453,469453,467824,468737,467825,469853,469254,469254,469853,118
119,test,1,inc,1,m,Thu Jan 09 2025 12:39:02 GMT-0600 (Central Standard Time),489319.6000000015,plum,1100,I,m,m,None,659,444.0,215.0,112,1,2412.2000000029802,486907.3999999985,8008,iron,NF,C,471819,471819,469856,471098,469858,472269,471604,471604,472269,119
120,test,1,inc,1,m,Thu Jan 09 2025 12:39:02 GMT-0600 (Central Standard Time),491419.19999999553,orange,1000,I,m,m,None,555,340.0,215.0,95,1,2096.0999999940395,489323.1000000015,8008,cobalt,NF,C,474018,474019,472272,473286,472274,474368,473803,473803,474368,120
121,test,1,con,1,z,Thu Jan 09 2025 12:39:02 GMT-0600 (Central Standard Time),493601.69999999553,cherry,1100,I,z,z,None,541,342.0,199.0,12,1,2178.89999999851,491422.799999997,8008,cherry,NF,C,476201,476201,474372,475485,474373,476551,476002,476002,476551,121
122,test,1,inc,1,m,Thu Jan 09 2025 12:39:02 GMT-0600 (Central Standard Time),495551.0,banana,800,I,m,m,None,610,411.0,199.0,69,1,1945.8000000044703,493605.19999999553,8008,bronze,NF,C,478084,478084,476554,477368,476556,478500,477884,477885,478500,122
123,test,1,con,1,m,Thu Jan 09 2025 12:39:02 GMT-0600 (Central Standard Time),497683.69999999553,silver,900,I,m,m,None,689,490.0,199.0,82,1,2129.0999999940395,495554.6000000015,8008,silver,NF,C,480133,480133,478504,479418,478505,480633,479934,479934,480633,123
124,test,1,inc,1,m,Thu Jan 09 2025 12:39:02 GMT-0600 (Central Standard Time),499832.8999999985,cherry,900,I,m,m,None,707,492.0,215.0,78,1,2145.39999999851,497687.5,8008,copper,NF,C,482283,482283,480637,481550,480638,482782,482067,482067,482782,124
125,test,1,con,1,z,Thu Jan 09 2025 12:39:02 GMT-0600 (Central Standard Time),501749.1000000015,lime,800,I,z,z,None,571,372.0,199.0,33,1,1912.6000000014901,499836.5,8008,lime,NF,C,484315,484315,482786,483599,482787,484698,484116,484116,484698,125
126,test,1,inc,1,m,Thu Jan 09 2025 12:39:02 GMT-0600 (Central Standard Time),503915.1000000015,orange,1000,I,m,m,None,623,424.0,199.0,71,1,2162.5,501752.6000000015,8008,bronze,NF,C,486431,486431,484702,485715,484703,486864,486232,486232,486864,126
127,test,1,inc,1,m,Thu Jan 09 2025 12:39:02 GMT-0600 (Central Standard Time),505964.3999999985,banana,800,I,m,m,None,706,505.0,201.0,85,1,2045.5,503918.8999999985,8008,silver,NF,C,488398,488398,486868,487681,486869,488913,488197,488197,488913,127
128,test,1,inc,1,m,Thu Jan 09 2025 12:39:02 GMT-0600 (Central Standard Time),508247.0,raisin,1100,I,m,m,None,644,445.0,199.0,88,1,2279.10000000149,505967.8999999985,8008,silver,NF,C,490746,490746,488917,490031,488918,491196,490547,490547,491196,128
