acc_sum,block,block_c,condition,correct,correct_response,datetime,endtime,flanker,jitter,project,response,response_test_buffer_response,response_test_target_response,response_time,response_time_test_buffer_response,response_time_test_target_response,row_sel,session_number,start_end,starttime,subject_id,target,task,task_vers,time_test_buffer,time_test_buffer_response,time_test_constants,time_test_flanker,time_test_jitter,time_test_logger,time_test_target,time_test_target_response,time_test_variables,trial
0,prac,1,con,0,z,Fri Sep 06 2024 09:10:32 GMT-0500 (Central Daylight Time),180157.19999992847,lime,800,I,None,,,1799,,,5,1,4858.299999952316,175298.89999997616,7018,lime,NF,C,,,,,,,,,,1
0,prac,1,inc,0,z,Fri Sep 06 2024 09:10:32 GMT-0500 (Central Daylight Time),182823.39999997616,copper,900,I,m,,,459,,,2,1,2660.0,180163.39999997616,7018,cherry,NF,C,,,,,,,,,,2
0,prac,1,inc,0,z,Fri Sep 06 2024 09:10:32 GMT-0500 (Central Daylight Time),185539.10000002384,lead,1100,I,m,,,314,,,8,1,2711.2000000476837,182827.89999997616,7018,plum,NF,C,,,,,,,,,,3
0,prac,1,inc,0,m,Fri Sep 06 2024 09:10:32 GMT-0500 (Central Daylight Time),190820.69999992847,raisin,1100,I,None,,,1799,,,12,1,5277.299999952316,185543.39999997616,7018,cobalt,NF,C,,,,,,,,,,4
0,prac,1,inc,0,z,Fri Sep 06 2024 09:10:32 GMT-0500 (Central Daylight Time),193686.39999997616,cobalt,1100,I,m,,,451,,,4,1,2860.7000000476837,190825.69999992847,7018,raisin,NF,C,,,,,,,,,,5
1,prac,1,con,1,z,Fri Sep 06 2024 09:10:32 GMT-0500 (Central Daylight Time),196219.0,banana,800,I,z,,,422,,,1,1,2528.100000023842,193690.89999997616,7018,banana,NF,C,,,,,,,,,,6
2,prac,1,inc,1,m,Fri Sep 06 2024 09:10:32 GMT-0500 (Central Daylight Time),199184.5,plum,1100,I,m,,,550,,,16,1,2961.100000023842,196223.39999997616,7018,lead,NF,C,,,,,,,,,,7
3,prac,1,con,1,m,Fri Sep 06 2024 09:10:32 GMT-0500 (Central Daylight Time),202000.10000002384,zinc,1000,I,m,,,507,,,15,1,2811.5,199188.60000002384,7018,zinc,NF,C,,,,,,,,,,8
4,prac,1,inc,1,m,Fri Sep 06 2024 09:10:32 GMT-0500 (Central Daylight Time),204832.69999992847,cherry,900,I,m,,,633,,,10,1,2827.399999976158,202005.29999995232,7018,copper,NF,C,,,,,,,,,,9
5,prac,1,con,1,m,Fri Sep 06 2024 09:10:32 GMT-0500 (Central Daylight Time),207398.5,bronze,800,I,m,,,459,,,9,1,2561.100000023842,204837.39999997616,7018,bronze,NF,C,,,,,,,,,,10
6,prac,1,inc,1,z,Fri Sep 06 2024 09:10:32 GMT-0500 (Central Daylight Time),210178.5,iron,900,I,z,,,554,,,6,1,2774.100000023842,207404.39999997616,7018,pear,NF,C,,,,,,,,,,11
7,prac,1,con,1,z,Fri Sep 06 2024 09:10:32 GMT-0500 (Central Daylight Time),212913.29999995232,orange,1000,I,z,,,424,,,3,1,2728.100000023842,210185.19999992847,7018,orange,NF,C,,,,,,,,,,12
8,prac,1,con,1,m,Fri Sep 06 2024 09:10:32 GMT-0500 (Central Daylight Time),215629.29999995232,silver,1000,I,m,,,411,,,11,1,2710.399999976158,212918.89999997616,7018,silver,NF,C,,,,,,,,,,13
9,prac,1,con,1,m,Fri Sep 06 2024 09:10:32 GMT-0500 (Central Daylight Time),218161.89999997616,gold,800,I,m,,,431,,,13,1,2528.2000000476837,215633.69999992847,7018,gold,NF,C,,,,,,,,,,14
10,prac,1,con,1,z,Fri Sep 06 2024 09:10:32 GMT-0500 (Central Daylight Time),220794.60000002384,kiwi,1000,I,z,,,323,,,7,1,2627.3000000715256,218167.29999995232,7018,kiwi,NF,C,,,,,,,,,,15
11,prac,1,inc,1,m,Fri Sep 06 2024 09:10:32 GMT-0500 (Central Daylight Time),223460.19999992847,pear,900,I,m,,,463,,,14,1,2659.0999999046326,220801.10000002384,7018,iron,NF,C,,,,,,,,,,16
1,prac,2,con,1,m,Fri Sep 06 2024 09:10:32 GMT-0500 (Central Daylight Time),240371.5,zinc,1000,I,m,,,447,,,15,1,2745.100000023842,237626.39999997616,7018,zinc,NF,C,,,,,,,,,,1
2,prac,2,inc,1,m,Fri Sep 06 2024 09:10:32 GMT-0500 (Central Daylight Time),243170.5,plum,1100,I,m,,,397,,,16,1,2794.5,240376.0,7018,lead,NF,C,,,,,,,,,,2
3,prac,2,con,1,m,Fri Sep 06 2024 09:10:32 GMT-0500 (Central Daylight Time),245802.89999997616,silver,1000,I,m,,,329,,,11,1,2627.7000000476837,243175.19999992847,7018,silver,NF,C,,,,,,,,,,3
4,prac,2,con,1,z,Fri Sep 06 2024 09:10:32 GMT-0500 (Central Daylight Time),248485.5,orange,1000,I,z,,,370,,,3,1,2678.5,245807.0,7018,orange,NF,C,,,,,,,,,,4
5,prac,2,con,1,m,Fri Sep 06 2024 09:10:32 GMT-0500 (Central Daylight Time),250968.19999992847,bronze,800,I,m,,,365,,,9,1,2477.899999976158,248490.29999995232,7018,bronze,NF,C,,,,,,,,,,5
6,prac,2,con,1,z,Fri Sep 06 2024 09:10:32 GMT-0500 (Central Daylight Time),253400.79999995232,lime,800,I,z,,,317,,,5,1,2428.100000023842,250972.69999992847,7018,lime,NF,C,,,,,,,,,,6
7,prac,2,inc,1,m,Fri Sep 06 2024 09:10:32 GMT-0500 (Central Daylight Time),256216.39999997616,raisin,1100,I,m,,,407,,,12,1,2811.399999976158,253405.0,7018,cobalt,NF,C,,,,,,,,,,7
7,prac,2,inc,0,m,Fri Sep 06 2024 09:10:32 GMT-0500 (Central Daylight Time),258799.0,cherry,900,I,z,,,368,,,10,1,2578.3000000715256,256220.69999992847,7018,copper,NF,C,,,,,,,,,,8
8,prac,2,inc,1,m,Fri Sep 06 2024 09:10:32 GMT-0500 (Central Daylight Time),261431.39999997616,pear,900,I,m,,,426,,,14,1,2627.7999999523163,258803.60000002384,7018,iron,NF,C,,,,,,,,,,9
8,prac,2,inc,0,z,Fri Sep 06 2024 09:10:32 GMT-0500 (Central Daylight Time),264263.6999999285,cobalt,1100,I,m,,,425,,,4,1,2827.1999999284744,261436.5,7018,raisin,NF,C,,,,,,,,,,10
9,prac,2,con,1,m,Fri Sep 06 2024 09:10:32 GMT-0500 (Central Daylight Time),266913.10000002384,gold,800,I,m,,,540,,,13,1,2644.9000000953674,264268.1999999285,7018,gold,NF,C,,,,,,,,,,11
10,prac,2,inc,1,z,Fri Sep 06 2024 09:10:32 GMT-0500 (Central Daylight Time),269680.10000002384,copper,900,I,z,,,552,,,2,1,2762.8000000715256,266917.2999999523,7018,cherry,NF,C,,,,,,,,,,12
11,prac,2,con,1,z,Fri Sep 06 2024 09:10:32 GMT-0500 (Central Daylight Time),272211.39999997616,banana,800,I,z,,,422,,,1,1,2527.2999999523163,269684.10000002384,7018,banana,NF,C,,,,,,,,,,13
12,prac,2,inc,1,z,Fri Sep 06 2024 09:10:32 GMT-0500 (Central Daylight Time),275010.5,iron,900,I,z,,,589,,,6,1,2794.5,272216.0,7018,pear,NF,C,,,,,,,,,,14
13,prac,2,con,1,z,Fri Sep 06 2024 09:10:32 GMT-0500 (Central Daylight Time),277793.10000002384,kiwi,1000,I,z,,,481,,,7,1,2778.0,275015.10000002384,7018,kiwi,NF,C,,,,,,,,,,15
13,prac,2,inc,0,z,Fri Sep 06 2024 09:10:32 GMT-0500 (Central Daylight Time),280642.1999999285,lead,1100,I,m,,,440,,,8,1,2845.1999999284744,277797.0,7018,plum,NF,C,,,,,,,,,,16
1,test,1,inc,1,z,Fri Sep 06 2024 09:10:32 GMT-0500 (Central Daylight Time),310366.89999997616,cobalt,1100,I,z,z,None,528,328.0,200.0,32,1,2163.2999999523163,308203.60000002384,7018,raisin,NF,C,303567,303567,301737,302850,301737,303900,303366,303366,303900,1
2,test,1,con,1,z,Fri Sep 06 2024 09:10:32 GMT-0500 (Central Daylight Time),312315.60000002384,plum,1000,I,z,z,None,414,215.0,199.0,59,1,1944.2000000476837,310371.39999997616,7018,plum,NF,C,305632,305632,303904,304916,303905,305849,305433,305433,305849,2
3,test,1,con,1,m,Fri Sep 06 2024 09:10:32 GMT-0500 (Central Daylight Time),314065.10000002384,copper,800,I,m,m,None,400,201.0,199.0,73,1,1744.1000000238419,312321.0,7018,copper,NF,C,307382,307382,305854,306665,305854,307598,307182,307182,307598,3
4,test,1,inc,1,m,Fri Sep 06 2024 09:10:32 GMT-0500 (Central Daylight Time),316130.6999999285,kiwi,1000,I,m,m,None,532,332.0,200.0,127,1,2061.399999976158,314069.2999999523,7018,lead,NF,C,309331,309331,307602,308614,307603,309664,309131,309131,309664,4
5,test,1,con,1,z,Fri Sep 06 2024 09:10:32 GMT-0500 (Central Daylight Time),318013.7999999523,kiwi,800,I,z,z,None,546,346.0,200.0,49,1,1879.1000000238419,316134.6999999285,7018,kiwi,NF,C,311197,311197,309668,310480,309668,311547,310997,310997,311547,5
6,test,1,inc,1,z,Fri Sep 06 2024 09:10:32 GMT-0500 (Central Daylight Time),319913.1999999285,copper,900,I,z,z,None,459,259.0,200.0,22,1,1895.1999999284744,318018.0,7018,orange,NF,C,313180,313180,311551,312463,311551,313446,312980,312980,313446,6
7,test,1,con,1,m,Fri Sep 06 2024 09:10:32 GMT-0500 (Central Daylight Time),321779.10000002384,cobalt,900,I,m,m,None,424,224.0,200.0,90,1,1861.9000000953674,319917.1999999285,7018,cobalt,NF,C,315079,315079,313450,314363,313450,315312,314879,314879,315312,7
8,test,1,con,1,m,Fri Sep 06 2024 09:10:32 GMT-0500 (Central Daylight Time),323811.7999999523,bronze,1100,I,m,m,None,390,190.0,200.0,68,1,2028.6000000238419,321783.1999999285,7018,bronze,NF,C,317145,317145,315316,316429,315316,317345,316945,316945,317345,8
9,test,1,inc,1,m,Fri Sep 06 2024 09:10:32 GMT-0500 (Central Daylight Time),325595.0,lime,800,I,m,m,None,449,249.0,200.0,101,1,1779.2000000476837,323815.7999999523,7018,gold,NF,C,318878,318878,317349,318162,317349,319128,318678,318678,319128,9
10,test,1,con,1,z,Fri Sep 06 2024 09:10:32 GMT-0500 (Central Daylight Time),327594.1999999285,plum,1100,I,z,z,None,366,166.0,200.0,60,1,1995.2999999523163,325598.89999997616,7018,plum,NF,C,320961,320961,319132,320244,319132,321127,320761,320761,321127,10
11,test,1,inc,1,z,Fri Sep 06 2024 09:10:32 GMT-0500 (Central Daylight Time),329560.10000002384,silver,1000,I,z,z,None,427,227.0,200.0,15,1,1962.2000000476837,327597.89999997616,7018,cherry,NF,C,322860,322860,321131,322144,321131,323093,322660,322660,323093,11
12,test,1,con,1,z,Fri Sep 06 2024 09:10:32 GMT-0500 (Central Daylight Time),331576.1999999285,kiwi,1100,I,z,z,None,377,177.0,200.0,52,1,2012.2999999523163,329563.89999997616,7018,kiwi,NF,C,324926,324926,323097,324210,323097,325109,324726,324726,325109,12
13,test,1,inc,1,m,Fri Sep 06 2024 09:10:32 GMT-0500 (Central Daylight Time),333509.0,orange,1000,I,m,m,None,397,197.0,200.0,87,1,1929.0,331580.0,7018,silver,NF,C,326842,326842,325113,326126,325113,327042,326642,326642,327042,13
14,test,1,con,1,z,Fri Sep 06 2024 09:10:32 GMT-0500 (Central Daylight Time),335592.5,kiwi,1000,I,z,z,None,544,344.0,200.0,51,1,2079.600000023842,333512.89999997616,7018,kiwi,NF,C,328775,328775,327046,328059,327046,329126,328575,328575,329126,14
15,test,1,con,1,m,Fri Sep 06 2024 09:10:32 GMT-0500 (Central Daylight Time),337474.2999999523,cobalt,1000,I,m,m,None,332,133.0,199.0,91,1,1877.7999999523163,335596.5,7018,cobalt,NF,C,330857,330858,329130,330141,329130,331007,330658,330658,331007,15
16,test,1,con,1,z,Fri Sep 06 2024 09:10:32 GMT-0500 (Central Daylight Time),339157.0,plum,800,I,z,z,None,339,139.0,200.0,57,1,1678.8999999761581,337478.10000002384,7018,plum,NF,C,332540,332540,331011,331824,331011,332690,332340,332340,332690,16
17,test,1,con,1,z,Fri Sep 06 2024 09:10:32 GMT-0500 (Central Daylight Time),341089.89999997616,cherry,900,I,z,z,None,492,292.0,200.0,10,1,1929.0,339160.89999997616,7018,cherry,NF,C,334323,334323,332694,333607,332694,334623,334123,334123,334623,17
18,test,1,con,1,z,Fri Sep 06 2024 09:10:32 GMT-0500 (Central Daylight Time),342872.39999997616,orange,900,I,z,z,None,335,135.0,200.0,18,1,1778.7000000476837,341093.6999999285,7018,orange,NF,C,336256,336256,334627,335539,334627,336405,336056,336056,336405,18
19,test,1,inc,1,m,Fri Sep 06 2024 09:10:32 GMT-0500 (Central Daylight Time),344688.60000002384,cherry,900,I,m,m,None,367,168.0,199.0,70,1,1812.1000000238419,342876.5,7018,bronze,NF,C,338039,338039,336410,337322,336410,338222,337839,337839,338222,19
20,test,1,inc,1,m,Fri Sep 06 2024 09:10:32 GMT-0500 (Central Daylight Time),346638.10000002384,pear,900,I,m,m,None,511,312.0,199.0,102,1,1945.6000000238419,344692.5,7018,gold,NF,C,339855,339855,338226,339138,338226,340171,339655,339655,340171,20
20,test,1,inc,0,m,Fri Sep 06 2024 09:10:32 GMT-0500 (Central Daylight Time),348304.0,lime,800,I,z,z,None,327,127.0,200.0,125,1,1661.8000000715256,346642.1999999285,7018,lead,NF,C,341704,341704,340175,340988,340175,341837,341504,341504,341837,21
21,test,1,inc,1,z,Fri Sep 06 2024 09:10:32 GMT-0500 (Central Daylight Time),350420.5,cobalt,1100,I,z,z,None,473,273.0,200.0,24,1,2112.8000000715256,348307.6999999285,7018,orange,NF,C,343670,343670,341841,342954,341841,343954,343470,343470,343953,22
22,test,1,inc,1,z,Fri Sep 06 2024 09:10:32 GMT-0500 (Central Daylight Time),352236.0,bronze,800,I,z,z,None,481,281.0,200.0,21,1,1811.8000000715256,350424.1999999285,7018,orange,NF,C,345486,345486,343957,344770,343958,345769,345286,345286,345769,23
23,test,1,inc,1,z,Fri Sep 06 2024 09:10:32 GMT-0500 (Central Daylight Time),354202.1999999285,bronze,800,I,z,z,None,632,432.0,200.0,13,1,1962.3999999761581,352239.7999999523,7018,cherry,NF,C,347302,347303,345773,346586,345773,347735,347102,347102,347735,24
24,test,1,inc,1,m,Fri Sep 06 2024 09:10:32 GMT-0500 (Central Daylight Time),355968.1999999285,lime,800,I,m,m,None,419,219.0,200.0,117,1,1762.2999999523163,354205.89999997616,7018,zinc,NF,C,349268,349268,347739,348552,347739,349501,349068,349068,349501,25
25,test,1,inc,1,m,Fri Sep 06 2024 09:10:32 GMT-0500 (Central Daylight Time),357834.60000002384,pear,900,I,m,m,None,416,217.0,199.0,118,1,1862.4000000953674,355972.1999999285,7018,zinc,NF,C,351134,351134,349505,350418,349506,351368,350935,350935,351368,26
26,test,1,con,1,m,Fri Sep 06 2024 09:10:32 GMT-0500 (Central Daylight Time),359650.5,gold,800,I,m,m,None,465,266.0,199.0,97,1,1812.3000000715256,357838.1999999285,7018,gold,NF,C,352901,352901,351371,352184,351372,353184,352701,352701,353184,27
27,test,1,con,1,m,Fri Sep 06 2024 09:10:32 GMT-0500 (Central Daylight Time),361433.2999999523,zinc,800,I,m,m,None,434,235.0,199.0,113,1,1778.8999999761581,359654.39999997616,7018,zinc,NF,C,354716,354716,353187,354000,353188,354966,354517,354517,354966,28
28,test,1,inc,1,z,Fri Sep 06 2024 09:10:32 GMT-0500 (Central Daylight Time),363349.2999999523,silver,1000,I,z,z,None,371,172.0,199.0,31,1,1912.1000000238419,361437.1999999285,7018,raisin,NF,C,356699,356699,354970,355983,354971,356882,356499,356500,356882,29
29,test,1,inc,1,z,Fri Sep 06 2024 09:10:32 GMT-0500 (Central Daylight Time),365615.1999999285,lead,1100,I,z,z,None,628,428.0,200.0,40,1,2262.0,363353.1999999285,7018,lime,NF,C,358715,358715,356886,357999,356887,359148,358515,358515,359148,30
29,test,1,inc,0,m,Fri Sep 06 2024 09:10:32 GMT-0500 (Central Daylight Time),367631.1999999285,plum,1100,I,z,z,None,369,169.0,200.0,120,1,2012.1999999284744,365619.0,7018,zinc,NF,C,360982,360982,359152,360265,359152,361164,360781,360781,361164,31
30,test,1,inc,1,m,Fri Sep 06 2024 09:10:32 GMT-0500 (Central Daylight Time),369680.7999999523,raisin,1100,I,m,m,None,409,210.0,199.0,88,1,2045.8999999761581,367634.89999997616,7018,silver,NF,C,362997,362997,361168,362281,361168,363214,362798,362798,363214,32
30,test,1,con,0,z,Fri Sep 06 2024 09:10:32 GMT-0500 (Central Daylight Time),371563.5,plum,900,I,m,m,None,448,248.0,200.0,58,1,1878.8000000715256,369684.6999999285,7018,plum,NF,C,364847,364847,363218,364130,363218,365097,364647,364647,365097,33
31,test,1,inc,1,m,Fri Sep 06 2024 09:10:32 GMT-0500 (Central Daylight Time),373446.10000002384,banana,800,I,m,m,None,537,338.0,199.0,85,1,1878.6000000238419,371567.5,7018,silver,NF,C,366629,366629,365101,365913,365101,366979,366430,366430,366979,34
32,test,1,con,1,z,Fri Sep 06 2024 09:10:32 GMT-0500 (Central Daylight Time),375495.60000002384,cherry,1000,I,z,z,None,447,244.0,203.0,11,1,2045.3000000715256,373450.2999999523,7018,cherry,NF,C,368779,368779,366983,367996,366984,369029,368575,368575,369029,35
33,test,1,con,1,z,Fri Sep 06 2024 09:10:32 GMT-0500 (Central Daylight Time),377578.10000002384,pear,1000,I,z,z,None,533,333.0,200.0,43,1,2078.7000000476837,375499.39999997616,7018,pear,NF,C,370762,370762,369032,370045,369033,371111,370562,370562,371111,36
34,test,1,inc,1,m,Fri Sep 06 2024 09:10:32 GMT-0500 (Central Daylight Time),379661.1999999285,orange,1000,I,m,m,None,539,339.0,200.0,79,1,2079.0999999046326,377582.10000002384,7018,copper,NF,C,372844,372844,371115,372128,371115,373194,372644,372644,373194,37
35,test,1,inc,1,m,Fri Sep 06 2024 09:10:32 GMT-0500 (Central Daylight Time),381777.0,plum,1100,I,m,m,None,468,268.0,200.0,104,1,2112.0,379665.0,7018,gold,NF,C,375027,375027,373198,374310,373198,375310,374827,374827,375310,38
36,test,1,inc,1,z,Fri Sep 06 2024 09:10:32 GMT-0500 (Central Daylight Time),383776.10000002384,zinc,1000,I,z,z,None,460,260.0,200.0,39,1,1995.3000000715256,381780.7999999523,7018,lime,NF,C,377043,377043,375314,376326,375314,377309,376843,376843,377309,39
37,test,1,con,1,m,Fri Sep 06 2024 09:10:32 GMT-0500 (Central Daylight Time),386058.6999999285,lead,1100,I,m,m,None,641,441.0,200.0,124,1,2278.7999999523163,383779.89999997616,7018,lead,NF,C,379142,379142,377313,378426,377313,379592,378942,378942,379592,40
38,test,1,inc,1,m,Fri Sep 06 2024 09:10:32 GMT-0500 (Central Daylight Time),387941.6999999285,cherry,900,I,m,m,None,438,237.0,201.0,78,1,1878.8999999761581,386062.7999999523,7018,copper,NF,C,381226,381226,379596,380509,379596,381475,381025,381025,381475,41
39,test,1,con,1,m,Fri Sep 06 2024 09:10:32 GMT-0500 (Central Daylight Time),389974.2999999523,bronze,1000,I,m,m,None,487,287.0,200.0,67,1,2028.6999999284744,387945.60000002384,7018,bronze,NF,C,383208,383208,381479,382491,381479,383507,383008,383008,383507,42
40,test,1,inc,1,z,Fri Sep 06 2024 09:10:32 GMT-0500 (Central Daylight Time),392206.89999997616,cobalt,1100,I,z,z,None,586,386.0,200.0,8,1,2228.7999999523163,389978.10000002384,7018,banana,NF,C,385340,385341,383511,384624,383511,385740,385140,385140,385740,43
41,test,1,inc,1,m,Fri Sep 06 2024 09:10:32 GMT-0500 (Central Daylight Time),394139.6999999285,pear,900,I,m,m,None,489,290.0,199.0,126,1,1928.8999999761581,392210.7999999523,7018,lead,NF,C,387373,387373,385744,386656,385744,387673,387174,387174,387673,44
42,test,1,inc,1,m,Fri Sep 06 2024 09:10:32 GMT-0500 (Central Daylight Time),396272.1999999285,raisin,1100,I,m,m,None,484,285.0,199.0,96,1,2128.6999999284744,394143.5,7018,cobalt,NF,C,389506,389506,387677,388789,387677,389805,389306,389306,389805,45
43,test,1,con,1,m,Fri Sep 06 2024 09:10:32 GMT-0500 (Central Daylight Time),398054.89999997616,silver,800,I,m,m,None,443,244.0,199.0,81,1,1778.7999999523163,396276.10000002384,7018,silver,NF,C,391339,391339,389809,390622,389809,391588,391139,391139,391588,46
43,test,1,inc,0,m,Fri Sep 06 2024 09:10:32 GMT-0500 (Central Daylight Time),400120.89999997616,raisin,1100,I,z,z,None,418,218.0,200.0,80,1,2062.399999976158,398058.5,7018,copper,NF,C,393421,393421,391592,392705,391592,393654,393221,393221,393654,47
44,test,1,con,1,z,Fri Sep 06 2024 09:10:32 GMT-0500 (Central Daylight Time),402303.7999999523,raisin,1000,I,z,z,None,644,444.0,200.0,27,1,2179.1999999284744,400124.60000002384,7018,raisin,NF,C,395387,395387,393658,394671,393658,395837,395187,395187,395837,48
45,test,1,con,1,m,Fri Sep 06 2024 09:10:32 GMT-0500 (Central Daylight Time),404503.10000002384,cobalt,1100,I,m,m,None,553,353.0,200.0,92,1,2195.600000023842,402307.5,7018,cobalt,NF,C,397670,397670,395841,396953,395841,398036,397470,397470,398036,49
46,test,1,inc,1,z,Fri Sep 06 2024 09:10:32 GMT-0500 (Central Daylight Time),406635.7999999523,zinc,1000,I,z,z,None,590,390.0,200.0,47,1,2128.7999999523163,404507.0,7018,pear,NF,C,399769,399769,398040,399052,398040,400169,399569,399569,400169,50
47,test,1,con,1,z,Fri Sep 06 2024 09:10:32 GMT-0500 (Central Daylight Time),408785.10000002384,orange,1100,I,z,z,None,509,309.0,200.0,20,1,2145.7000000476837,406639.39999997616,7018,orange,NF,C,402002,402002,400172,401285,400173,402318,401802,401802,402318,51
48,test,1,inc,1,z,Fri Sep 06 2024 09:10:32 GMT-0500 (Central Daylight Time),410934.2999999523,lead,1100,I,z,z,None,512,312.0,200.0,64,1,2145.399999976158,408788.89999997616,7018,plum,NF,C,404151,404151,402322,403435,402322,404467,403951,403951,404467,52
49,test,1,inc,1,z,Fri Sep 06 2024 09:10:32 GMT-0500 (Central Daylight Time),412967.10000002384,zinc,1000,I,z,z,None,485,286.0,199.0,55,1,2028.6000000238419,410938.5,7018,kiwi,NF,C,406201,406201,404472,405484,404472,406500,406001,406001,406500,53
50,test,1,con,1,m,Fri Sep 06 2024 09:10:32 GMT-0500 (Central Daylight Time),414999.6999999285,silver,1100,I,m,m,None,394,194.0,200.0,84,1,2028.7999999523163,412970.89999997616,7018,silver,NF,C,408333,408333,406504,407617,406504,408533,408133,408133,408533,54
51,test,1,con,1,m,Fri Sep 06 2024 09:10:32 GMT-0500 (Central Daylight Time),416899.0,lead,900,I,m,m,None,465,265.0,200.0,122,1,1895.5,415003.5,7018,lead,NF,C,410166,410166,408537,409449,408537,410432,409966,409966,410432,55
52,test,1,con,1,z,Fri Sep 06 2024 09:10:32 GMT-0500 (Central Daylight Time),418632.1999999285,raisin,800,I,z,z,None,394,194.0,200.0,25,1,1729.1999999284744,416903.0,7018,raisin,NF,C,411965,411965,410436,411249,410436,412165,411765,411765,412165,56
53,test,1,inc,1,z,Fri Sep 06 2024 09:10:32 GMT-0500 (Central Daylight Time),420798.0,lead,1100,I,z,z,None,521,321.0,200.0,48,1,2162.100000023842,418635.89999997616,7018,pear,NF,C,413998,413998,412169,413282,412169,414331,413798,413798,414331,57
54,test,1,inc,1,z,Fri Sep 06 2024 09:10:32 GMT-0500 (Central Daylight Time),422680.6999999285,gold,800,I,z,z,None,522,318.0,204.0,61,1,1879.0,420801.6999999285,7018,plum,NF,C,415881,415881,414335,415148,414335,416214,415676,415676,416214,58
55,test,1,inc,1,m,Fri Sep 06 2024 09:10:32 GMT-0500 (Central Daylight Time),424630.0,kiwi,1000,I,m,m,None,412,212.0,200.0,119,1,1945.6000000238419,422684.39999997616,7018,zinc,NF,C,417947,417947,416217,417230,416218,418163,417747,417747,418163,59
56,test,1,con,1,z,Fri Sep 06 2024 09:10:32 GMT-0500 (Central Daylight Time),426679.1999999285,pear,1100,I,z,z,None,411,211.0,200.0,44,1,2045.5999999046326,424633.60000002384,7018,pear,NF,C,419996,419996,418167,419280,418167,420212,419796,419796,420212,60
57,test,1,con,1,m,Fri Sep 06 2024 09:10:32 GMT-0500 (Central Daylight Time),428712.10000002384,copper,1000,I,m,m,None,493,294.0,199.0,75,1,2029.2000000476837,426682.89999997616,7018,copper,NF,C,421945,421945,420216,421229,420216,422245,421746,421746,422245,61
58,test,1,inc,1,m,Fri Sep 06 2024 09:10:32 GMT-0500 (Central Daylight Time),430711.39999997616,kiwi,1000,I,m,m,None,461,261.0,200.0,103,1,1995.5,428715.89999997616,7018,gold,NF,C,423978,423978,422249,423262,422249,424244,423778,423778,424244,62
59,test,1,inc,1,z,Fri Sep 06 2024 09:10:32 GMT-0500 (Central Daylight Time),432644.1999999285,silver,1000,I,z,z,None,388,189.0,199.0,7,1,1929.0999999046326,430715.10000002384,7018,banana,NF,C,425978,425978,424248,425262,424248,426177,425778,425778,426177,63
60,test,1,inc,1,m,Fri Sep 06 2024 09:10:32 GMT-0500 (Central Daylight Time),434793.5,raisin,1100,I,m,m,None,501,301.0,200.0,72,1,2145.5,432648.0,7018,bronze,NF,C,428010,428010,426181,427294,426181,428327,427810,427810,428327,64
61,test,1,inc,1,m,Fri Sep 06 2024 09:10:32 GMT-0500 (Central Daylight Time),436776.1999999285,cherry,900,I,m,m,None,543,343.0,200.0,86,1,1978.5999999046326,434797.60000002384,7018,silver,NF,C,429960,429960,428331,429243,428331,430309,429759,429759,430309,65
62,test,1,con,1,m,Fri Sep 06 2024 09:10:32 GMT-0500 (Central Daylight Time),438675.2999999523,iron,900,I,m,m,None,465,265.0,200.0,106,1,1895.1999999284744,436780.10000002384,7018,iron,NF,C,431942,431942,430313,431226,430313,432208,431742,431742,432208,66
63,test,1,con,1,m,Fri Sep 06 2024 09:10:32 GMT-0500 (Central Daylight Time),440658.1999999285,silver,1000,I,m,m,None,440,241.0,199.0,83,1,1978.8999999761581,438679.2999999523,7018,silver,NF,C,433942,433942,432212,433225,432213,434191,433742,433742,434191,67
64,test,1,inc,1,m,Fri Sep 06 2024 09:10:32 GMT-0500 (Central Daylight Time),442507.5,lime,800,I,m,m,None,507,307.0,200.0,109,1,1845.5,440662.0,7018,iron,NF,C,435724,435724,434195,435008,434195,436041,435524,435524,436041,68
65,test,1,con,1,z,Fri Sep 06 2024 09:10:32 GMT-0500 (Central Daylight Time),444240.60000002384,pear,800,I,z,z,None,384,185.0,199.0,41,1,1728.9000000953674,442511.6999999285,7018,pear,NF,C,437574,437574,436045,436857,436045,437774,437374,437374,437774,69
66,test,1,inc,1,m,Fri Sep 06 2024 09:10:32 GMT-0500 (Central Daylight Time),446290.10000002384,orange,1000,I,m,m,None,415,209.0,206.0,95,1,2045.7000000476837,444244.39999997616,7018,cobalt,NF,C,439606,439606,437777,438790,437778,439823,439400,439400,439823,70
67,test,1,con,1,m,Fri Sep 06 2024 09:10:32 GMT-0500 (Central Daylight Time),448372.39999997616,zinc,1000,I,m,m,None,539,339.0,200.0,115,1,2078.600000023842,446293.7999999523,7018,zinc,NF,C,441556,441556,439827,440840,439827,441905,441356,441356,441905,71
68,test,1,inc,1,z,Fri Sep 06 2024 09:10:32 GMT-0500 (Central Daylight Time),450255.10000002384,iron,900,I,z,z,None,435,236.0,199.0,54,1,1878.9000000953674,448376.1999999285,7018,kiwi,NF,C,443539,443539,441909,442822,441909,443788,443339,443339,443788,72
69,test,1,inc,1,m,Fri Sep 06 2024 09:10:32 GMT-0500 (Central Daylight Time),452354.6999999285,plum,1100,I,m,m,None,450,250.0,200.0,112,1,2095.5999999046326,450259.10000002384,7018,iron,NF,C,445621,445621,443792,444905,443792,445888,445421,445421,445888,73
70,test,1,con,1,z,Fri Sep 06 2024 09:10:32 GMT-0500 (Central Daylight Time),454237.2999999523,kiwi,900,I,z,z,None,446,246.0,200.0,50,1,1878.8999999761581,452358.39999997616,7018,kiwi,NF,C,447521,447521,445891,446804,445892,447770,447321,447321,447770,74
71,test,1,con,1,m,Fri Sep 06 2024 09:10:32 GMT-0500 (Central Daylight Time),456353.2999999523,copper,1100,I,m,m,None,475,275.0,200.0,76,1,2112.100000023842,454241.1999999285,7018,copper,NF,C,449604,449604,447774,448887,447774,449886,449403,449403,449886,75
72,test,1,con,1,m,Fri Sep 06 2024 09:10:32 GMT-0500 (Central Daylight Time),458352.7999999523,lead,1000,I,m,m,None,452,252.0,200.0,123,1,1995.1999999284744,456357.60000002384,7018,lead,NF,C,451619,451619,449891,450903,449891,451886,451419,451419,451886,76
73,test,1,con,1,z,Fri Sep 06 2024 09:10:32 GMT-0500 (Central Daylight Time),460302.0,lime,1000,I,z,z,None,404,204.0,200.0,35,1,1945.3999999761581,458356.60000002384,7018,lime,NF,C,453619,453619,451890,452902,451890,453835,453419,453419,453835,77
74,test,1,con,1,m,Fri Sep 06 2024 09:10:32 GMT-0500 (Central Daylight Time),462051.5,bronze,800,I,m,m,None,414,215.0,199.0,65,1,1745.7000000476837,460305.7999999523,7018,bronze,NF,C,455368,455368,453839,454652,453839,455585,455169,455169,455585,78
75,test,1,inc,1,m,Fri Sep 06 2024 09:10:32 GMT-0500 (Central Daylight Time),464034.10000002384,orange,1000,I,m,m,None,433,233.0,200.0,71,1,1978.8000000715256,462055.2999999523,7018,bronze,NF,C,457318,457318,455588,456601,455589,457567,457117,457117,457567,79
76,test,1,con,1,z,Fri Sep 06 2024 09:10:32 GMT-0500 (Central Daylight Time),465983.60000002384,cherry,800,I,z,z,None,603,403.0,200.0,9,1,1945.9000000953674,464037.6999999285,7018,cherry,NF,C,459100,459100,457571,458384,457571,459517,458900,458900,459517,80
77,test,1,con,1,z,Fri Sep 06 2024 09:10:32 GMT-0500 (Central Daylight Time),467783.0,lime,900,I,z,z,None,361,161.0,200.0,34,1,1795.6000000238419,465987.39999997616,7018,lime,NF,C,461150,461150,459520,460433,459521,461316,460950,460950,461316,81
78,test,1,con,1,z,Fri Sep 06 2024 09:10:32 GMT-0500 (Central Daylight Time),469865.6999999285,cherry,1100,I,z,z,None,423,217.0,206.0,12,1,2079.0,467786.6999999285,7018,cherry,NF,C,463166,463166,461320,462434,461320,463399,462959,462959,463399,82
79,test,1,con,1,m,Fri Sep 06 2024 09:10:32 GMT-0500 (Central Daylight Time),471598.5,iron,800,I,m,m,None,395,195.0,200.0,105,1,1729.1000000238419,469869.39999997616,7018,iron,NF,C,464932,464932,463402,464215,463403,465132,464732,464732,465132,83
80,test,1,inc,1,z,Fri Sep 06 2024 09:10:32 GMT-0500 (Central Daylight Time),473481.1999999285,gold,800,I,z,z,None,542,343.0,199.0,45,1,1878.8999999761581,471602.2999999523,7018,pear,NF,C,466664,466664,465135,465948,465136,467014,466465,466465,467014,84
80,test,1,inc,0,z,Fri Sep 06 2024 09:10:32 GMT-0500 (Central Daylight Time),475213.89999997616,bronze,800,I,m,m,None,396,196.0,200.0,5,1,1728.8999999761581,473485.0,7018,banana,NF,C,468547,468547,467018,467831,467018,468747,468347,468347,468747,85
81,test,1,con,1,m,Fri Sep 06 2024 09:10:32 GMT-0500 (Central Daylight Time),477213.39999997616,gold,1000,I,m,m,None,455,255.0,200.0,99,1,1995.7000000476837,475217.6999999285,7018,gold,NF,C,470480,470480,468751,469764,468751,470747,470280,470280,470746,86
82,test,1,inc,1,m,Fri Sep 06 2024 09:10:32 GMT-0500 (Central Daylight Time),479046.1999999285,banana,800,I,m,m,None,494,295.0,199.0,77,1,1828.8999999761581,477217.2999999523,7018,copper,NF,C,472280,472280,470750,471563,470751,472579,472080,472080,472579,87
83,test,1,con,1,m,Fri Sep 06 2024 09:10:32 GMT-0500 (Central Daylight Time),480829.0,cobalt,800,I,m,m,None,447,247.0,200.0,89,1,1778.8999999761581,479050.10000002384,7018,cobalt,NF,C,474112,474112,472583,473396,472583,474362,473912,473912,474362,88
84,test,1,inc,1,z,Fri Sep 06 2024 09:10:32 GMT-0500 (Central Daylight Time),482795.10000002384,silver,1000,I,z,z,None,424,224.0,200.0,23,1,1962.4000000953674,480832.6999999285,7018,orange,NF,C,476095,476095,474366,475379,474366,476328,475895,475895,476328,89
85,test,1,con,1,m,Fri Sep 06 2024 09:10:32 GMT-0500 (Central Daylight Time),484861.10000002384,copper,900,I,m,m,None,622,422.0,200.0,74,1,2062.0,482799.10000002384,7018,copper,NF,C,477961,477961,476332,477245,476332,478394,477761,477761,478394,90
86,test,1,inc,1,z,Fri Sep 06 2024 09:10:32 GMT-0500 (Central Daylight Time),486727.1999999285,iron,900,I,z,z,None,428,228.0,200.0,38,1,1862.2999999523163,484864.89999997616,7018,lime,NF,C,480027,480027,478398,479311,478398,480260,479827,479827,480260,91
87,test,1,con,1,m,Fri Sep 06 2024 09:10:32 GMT-0500 (Central Daylight Time),488509.7999999523,zinc,900,I,m,m,None,345,145.0,200.0,114,1,1778.8999999761581,486730.89999997616,7018,zinc,NF,C,481894,481894,480264,481177,480264,482043,481693,481693,482043,92
88,test,1,inc,1,z,Fri Sep 06 2024 09:10:32 GMT-0500 (Central Daylight Time),490242.7999999523,bronze,800,I,z,z,None,390,191.0,199.0,29,1,1729.0,488513.7999999523,7018,raisin,NF,C,483576,483576,482047,482860,482047,483776,483376,483376,483776,93
89,test,1,inc,1,m,Fri Sep 06 2024 09:10:32 GMT-0500 (Central Daylight Time),492325.1999999285,plum,1100,I,m,m,None,437,238.0,199.0,128,1,2078.5,490246.6999999285,7018,lead,NF,C,485609,485609,483780,484892,483780,485858,485409,485409,485858,94
90,test,1,inc,1,m,Fri Sep 06 2024 09:10:32 GMT-0500 (Central Daylight Time),494274.7999999523,cherry,900,I,m,m,None,507,307.0,200.0,94,1,1945.3999999761581,492329.39999997616,7018,cobalt,NF,C,487492,487492,485862,486775,485863,487808,487291,487291,487808,95
91,test,1,con,1,z,Fri Sep 06 2024 09:10:32 GMT-0500 (Central Daylight Time),496274.10000002384,banana,1100,I,z,z,None,349,150.0,199.0,4,1,1995.3000000715256,494278.7999999523,7018,banana,NF,C,489641,489641,487812,488924,487812,489807,489441,489441,489807,96
92,test,1,inc,1,z,Fri Sep 06 2024 09:10:32 GMT-0500 (Central Daylight Time),498156.89999997616,copper,900,I,z,z,None,439,239.0,200.0,30,1,1879.2999999523163,496277.60000002384,7018,raisin,NF,C,491440,491440,489811,490724,489811,491690,491240,491240,491690,97
93,test,1,con,1,z,Fri Sep 06 2024 09:10:32 GMT-0500 (Central Daylight Time),499973.0,banana,900,I,z,z,None,380,180.0,200.0,2,1,1812.3000000715256,498160.6999999285,7018,banana,NF,C,493323,493323,491694,492607,491694,493506,493123,493123,493506,98
94,test,1,con,1,m,Fri Sep 06 2024 09:10:32 GMT-0500 (Central Daylight Time),501905.6999999285,lead,800,I,m,m,None,584,384.0,200.0,121,1,1928.7999999523163,499976.89999997616,7018,lead,NF,C,495039,495039,493510,494324,493510,495439,494839,494839,495439,99
95,test,1,con,1,m,Fri Sep 06 2024 09:10:32 GMT-0500 (Central Daylight Time),503905.0,bronze,900,I,m,m,None,559,359.0,200.0,66,1,1995.5,501909.5,7018,bronze,NF,C,497072,497072,495443,496355,495443,497438,496872,496872,497438,100
96,test,1,inc,1,z,Fri Sep 06 2024 09:10:32 GMT-0500 (Central Daylight Time),505687.6999999285,gold,800,I,z,z,None,434,219.0,215.0,53,1,1778.8999999761581,503908.7999999523,7018,kiwi,NF,C,498988,498988,497442,498255,497442,499221,498773,498773,499221,101
97,test,1,inc,1,z,Fri Sep 06 2024 09:10:32 GMT-0500 (Central Daylight Time),507737.10000002384,lead,1100,I,z,z,None,408,209.0,199.0,56,1,2045.8000000715256,505691.2999999523,7018,kiwi,NF,C,501054,501054,499224,500337,499225,501270,500854,500854,501270,102
98,test,1,con,1,z,Fri Sep 06 2024 09:10:32 GMT-0500 (Central Daylight Time),509653.2999999523,pear,900,I,z,z,None,472,272.0,200.0,42,1,1912.5,507740.7999999523,7018,pear,NF,C,502903,502903,501274,502187,501274,503186,502703,502703,503186,103
98,test,1,con,0,m,Fri Sep 06 2024 09:10:32 GMT-0500 (Central Daylight Time),511502.60000002384,gold,900,I,z,z,None,404,204.0,200.0,98,1,1845.4000000953674,509657.1999999285,7018,gold,NF,C,504819,504819,503190,504103,503191,505036,504619,504619,505036,104
98,test,1,inc,0,z,Fri Sep 06 2024 09:10:32 GMT-0500 (Central Daylight Time),513351.89999997616,copper,900,I,m,m,None,409,210.0,199.0,14,1,1845.6000000238419,511506.2999999523,7018,cherry,NF,C,506669,506669,505039,505952,505039,506885,506469,506469,506885,105
99,test,1,inc,1,z,Fri Sep 06 2024 09:10:32 GMT-0500 (Central Daylight Time),515101.39999997616,gold,800,I,z,z,None,413,213.0,200.0,37,1,1745.7000000476837,513355.6999999285,7018,lime,NF,C,508418,508418,506889,507702,506889,508634,508218,508218,508634,106
100,test,1,con,1,m,Fri Sep 06 2024 09:10:32 GMT-0500 (Central Daylight Time),517134.2999999523,zinc,1100,I,m,m,None,386,187.0,199.0,116,1,2029.2999999523163,515105.0,7018,zinc,NF,C,510468,510468,508638,509751,508638,510667,510268,510268,510667,107
101,test,1,inc,1,m,Fri Sep 06 2024 09:10:32 GMT-0500 (Central Daylight Time),519100.1999999285,banana,800,I,m,m,None,623,423.0,200.0,93,1,1961.8999999761581,517138.2999999523,7018,cobalt,NF,C,512200,512200,510671,511484,510672,512633,512000,512000,512633,108
102,test,1,con,1,z,Fri Sep 06 2024 09:10:32 GMT-0500 (Central Daylight Time),520899.5,raisin,900,I,z,z,None,365,165.0,200.0,26,1,1795.6000000238419,519103.89999997616,7018,raisin,NF,C,514266,514266,512637,513550,512637,514433,514066,514066,514433,109
103,test,1,con,1,z,Fri Sep 06 2024 09:10:32 GMT-0500 (Central Daylight Time),522882.2999999523,lime,1100,I,z,z,None,341,142.0,199.0,36,1,1978.7999999523163,520903.5,7018,lime,NF,C,516265,516265,514437,515549,514437,516415,516066,516066,516415,110
104,test,1,con,1,z,Fri Sep 06 2024 09:10:32 GMT-0500 (Central Daylight Time),524798.1999999285,banana,1000,I,z,z,None,371,171.0,200.0,3,1,1911.8999999761581,522886.2999999523,7018,banana,NF,C,518148,518148,516419,517432,516420,518331,517948,517948,518331,111
105,test,1,inc,1,m,Fri Sep 06 2024 09:10:32 GMT-0500 (Central Daylight Time),526731.2999999523,pear,900,I,m,m,None,490,291.0,199.0,110,1,1929.2999999523163,524802.0,7018,iron,NF,C,519964,519964,518335,519248,518335,520264,519765,519765,520264,112
106,test,1,con,1,z,Fri Sep 06 2024 09:10:32 GMT-0500 (Central Daylight Time),528730.3999999762,raisin,1100,I,z,z,None,366,166.0,200.0,28,1,1995.5,526734.8999999762,7018,raisin,NF,C,522097,522097,520268,521381,520268,522263,521897,521897,522263,113
106,test,1,inc,0,z,Fri Sep 06 2024 09:10:32 GMT-0500 (Central Daylight Time),530646.5,iron,900,I,m,m,None,478,279.0,199.0,62,1,1912.3999999761581,528734.1000000238,7018,plum,NF,C,523896,523896,522267,523180,522267,524180,523697,523697,524180,114
107,test,1,con,1,z,Fri Sep 06 2024 09:10:32 GMT-0500 (Central Daylight Time),532596.0,orange,1000,I,z,z,None,405,206.0,199.0,19,1,1945.8999999761581,530650.1000000238,7018,orange,NF,C,525913,525913,524183,525196,524183,526129,525713,525713,526129,115
108,test,1,con,1,z,Fri Sep 06 2024 09:10:32 GMT-0500 (Central Daylight Time),534461.6000000238,banana,800,I,z,z,None,529,329.0,200.0,1,1,1861.6000000238419,532600.0,7018,banana,NF,C,527662,527662,526133,526946,526133,527995,527462,527462,527995,116
109,test,1,inc,1,z,Fri Sep 06 2024 09:10:32 GMT-0500 (Central Daylight Time),536527.8999999762,zinc,1000,I,z,z,None,527,327.0,200.0,63,1,2062.7000000476837,534465.1999999285,7018,plum,NF,C,529728,529728,527998,529011,527998,530061,529528,529528,530061,117
110,test,1,inc,1,m,Fri Sep 06 2024 09:10:32 GMT-0500 (Central Daylight Time),538461.0,kiwi,1000,I,m,m,None,389,189.0,200.0,111,1,1929.3999999761581,536531.6000000238,7018,iron,NF,C,531794,531794,530065,531078,530065,531994,531594,531594,531994,118
111,test,1,inc,1,z,Fri Sep 06 2024 09:10:32 GMT-0500 (Central Daylight Time),540360.1000000238,copper,900,I,z,z,None,367,161.0,206.0,6,1,1894.7000000476837,538465.3999999762,7018,banana,NF,C,533726,533726,531998,532910,531999,533893,533520,533520,533893,119
112,test,1,con,1,m,Fri Sep 06 2024 09:10:32 GMT-0500 (Central Daylight Time),542726.1999999285,iron,1100,I,m,m,None,721,521.0,200.0,108,1,2362.2999999523163,540363.8999999762,7018,iron,NF,C,535726,535726,533897,535010,533897,536259,535526,535526,536259,120
113,test,1,inc,1,m,Fri Sep 06 2024 09:10:32 GMT-0500 (Central Daylight Time),544642.2999999523,banana,800,I,m,m,None,567,367.0,200.0,69,1,1912.2999999523163,542730.0,7018,bronze,NF,C,537792,537792,536263,537075,536263,538175,537592,537592,538175,121
114,test,1,con,1,z,Fri Sep 06 2024 09:10:32 GMT-0500 (Central Daylight Time),546441.5,lime,800,I,z,z,None,451,251.0,200.0,33,1,1795.3999999761581,544646.1000000238,7018,lime,NF,C,539708,539708,538179,538992,538179,539975,539508,539508,539975,122
115,test,1,con,1,m,Fri Sep 06 2024 09:10:32 GMT-0500 (Central Daylight Time),548274.1999999285,silver,900,I,m,m,None,390,191.0,199.0,82,1,1829.0999999046326,546445.1000000238,7018,silver,NF,C,541608,541608,539978,540891,539978,541807,541408,541408,541807,123
116,test,1,inc,1,z,Fri Sep 06 2024 09:10:32 GMT-0500 (Central Daylight Time),550440.1999999285,cobalt,1100,I,z,z,None,519,319.0,200.0,16,1,2162.1999999284744,548278.0,7018,cherry,NF,C,543640,543640,541811,542924,541811,543973,543440,543440,543973,124
117,test,1,inc,1,z,Fri Sep 06 2024 09:10:32 GMT-0500 (Central Daylight Time),552322.7999999523,iron,900,I,z,z,None,449,249.0,200.0,46,1,1878.8999999761581,550443.8999999762,7018,pear,NF,C,545606,545606,543977,544890,543977,545856,545406,545406,545856,125
117,test,1,con,0,z,Fri Sep 06 2024 09:10:32 GMT-0500 (Central Daylight Time),554072.5,orange,800,I,m,m,None,402,202.0,200.0,17,1,1746.1000000238419,552326.3999999762,7018,orange,NF,C,547389,547389,545859,546673,545860,547606,547189,547189,547606,126
118,test,1,con,1,m,Fri Sep 06 2024 09:10:32 GMT-0500 (Central Daylight Time),556138.3999999762,gold,1100,I,m,m,None,415,216.0,199.0,100,1,2062.100000023842,554076.2999999523,7018,gold,NF,C,549439,549439,547609,548722,547610,549671,549239,549239,549671,127
119,test,1,con,1,m,Fri Sep 06 2024 09:10:32 GMT-0500 (Central Daylight Time),558204.5,iron,1000,I,m,m,None,531,330.0,201.0,107,1,2062.3000000715256,556142.1999999285,7018,iron,NF,C,551405,551405,549675,550688,549676,551738,551204,551204,551737,128
